"STUDYID","DOMAIN","USUBJID","DSSEQ","DSTERM","DSDECOD","DSCAT","VISITNUM","VISIT","DSDTC","DSSTDTC","DSSTDY"
"CDISCPILOT01","DS","01-709-1007",1,"ADVERSE EVENT","ADVERSE EVENT","DISPOSITION EVENT",NA,NA,"2012-09-01","2012-09-01",NA
"CDISCPILOT01","DS","01-701-1023",1,"ADVERSE EVENT","ADVERSE EVENT","DISPOSITION EVENT",NA,NA,"2012-09-02","2012-09-02",NA
"CDISCPILOT01","DS","01-701-1111",1,"ADVERSE EVENT","ADVERSE EVENT","DISPOSITION EVENT",NA,NA,"2012-09-17","2012-09-17",NA
"CDISCPILOT01","DS","01-706-1384",1,"ADVERSE EVENT","ADVERSE EVENT","DISPOSITION EVENT",NA,NA,"2012-09-29","2012-09-29",NA
"CDISCPILOT01","DS","01-710-1142",1,"ADVERSE EVENT","ADVERSE EVENT","DISPOSITION EVENT",NA,NA,"2012-10-23","2012-10-23",NA
"CDISCPILOT01","DS","01-718-1079",1,"ADVERSE EVENT","ADVERSE EVENT","DISPOSITION EVENT",NA,NA,"2012-11-06","2012-11-06",NA
"CDISCPILOT01","DS","01-710-1271",1,"ADVERSE EVENT","ADVERSE EVENT","DISPOSITION EVENT",NA,NA,"2012-12-02","2012-12-02",NA
"CDISCPILOT01","DS","01-708-1216",1,"ADVERSE EVENT","ADVERSE EVENT","DISPOSITION EVENT",NA,NA,"2012-12-06","2012-12-06",NA
"CDISCPILOT01","DS","01-703-1403",1,"ADVERSE EVENT","ADVERSE EVENT","DISPOSITION EVENT",NA,NA,"2012-12-19","2012-12-19",NA
"CDISCPILOT01","DS","01-703-1086",1,"ADVERSE EVENT","ADVERSE EVENT","DISPOSITION EVENT",NA,NA,"2012-12-24","2012-12-24",NA
"CDISCPILOT01","DS","01-703-1258",1,"ADVERSE EVENT","ADVERSE EVENT","DISPOSITION EVENT",NA,NA,"2013-01-21","2013-01-21",NA
"CDISCPILOT01","DS","01-701-1115",1,"ADVERSE EVENT","ADVERSE EVENT","DISPOSITION EVENT",NA,NA,"2013-01-23","2013-01-23",NA
"CDISCPILOT01","DS","01-716-1094",1,"ADVERSE EVENT","ADVERSE EVENT","DISPOSITION EVENT",NA,NA,"2013-01-26","2013-01-26",NA
"CDISCPILOT01","DS","01-711-1433",1,"ADVERSE EVENT","ADVERSE EVENT","DISPOSITION EVENT",NA,NA,"2013-02-06","2013-02-06",NA
"CDISCPILOT01","DS","01-701-1341",1,"ADVERSE EVENT","ADVERSE EVENT","DISPOSITION EVENT",NA,NA,"2013-02-07","2013-02-07",NA
"CDISCPILOT01","DS","01-701-1444",1,"ADVERSE EVENT","ADVERSE EVENT","DISPOSITION EVENT",NA,NA,"2013-02-13","2013-02-13",NA
"CDISCPILOT01","DS","01-710-1053",1,"ADVERSE EVENT","ADVERSE EVENT","DISPOSITION EVENT",NA,NA,"2013-02-15","2013-02-15",NA
"CDISCPILOT01","DS","01-710-1385",1,"ADVERSE EVENT","ADVERSE EVENT","DISPOSITION EVENT",NA,NA,"2013-02-18","2013-02-18",NA
"CDISCPILOT01","DS","01-710-1300",1,"ADVERSE EVENT","ADVERSE EVENT","DISPOSITION EVENT",NA,NA,"2013-02-19","2013-02-19",NA
"CDISCPILOT01","DS","01-705-1393",1,"ADVERSE EVENT","ADVERSE EVENT","DISPOSITION EVENT",NA,NA,"2013-02-20","2013-02-20",NA
"CDISCPILOT01","DS","01-710-1070",1,"ADVERSE EVENT","ADVERSE EVENT","DISPOSITION EVENT",NA,NA,"2013-02-23","2013-02-23",NA
"CDISCPILOT01","DS","01-704-1008",1,"ADVERSE EVENT","ADVERSE EVENT","DISPOSITION EVENT",NA,NA,"2013-02-25","2013-02-25",NA
"CDISCPILOT01","DS","01-708-1213",1,"ADVERSE EVENT","ADVERSE EVENT","DISPOSITION EVENT",NA,NA,"2013-02-26","2013-02-26",NA
"CDISCPILOT01","DS","01-716-1373",1,"ADVERSE EVENT","ADVERSE EVENT","DISPOSITION EVENT",NA,NA,"2013-02-28","2013-02-28",NA
"CDISCPILOT01","DS","01-710-1278",1,"ADVERSE EVENT","ADVERSE EVENT","DISPOSITION EVENT",NA,NA,"2013-03-03","2013-03-03",NA
"CDISCPILOT01","DS","01-716-1189",1,"ADVERSE EVENT","ADVERSE EVENT","DISPOSITION EVENT",NA,NA,"2013-03-03","2013-03-03",NA
"CDISCPILOT01","DS","01-709-1424",1,"ADVERSE EVENT","ADVERSE EVENT","DISPOSITION EVENT",NA,NA,"2013-03-08","2013-03-08",NA
"CDISCPILOT01","DS","01-708-1032",1,"ADVERSE EVENT","ADVERSE EVENT","DISPOSITION EVENT",NA,NA,"2013-03-09","2013-03-09",NA
"CDISCPILOT01","DS","01-701-1180",1,"ADVERSE EVENT","ADVERSE EVENT","DISPOSITION EVENT",NA,NA,"2013-03-23","2013-03-23",NA
"CDISCPILOT01","DS","01-701-1188",1,"ADVERSE EVENT","ADVERSE EVENT","DISPOSITION EVENT",NA,NA,"2013-03-25","2013-03-25",NA
"CDISCPILOT01","DS","01-701-1047",1,"ADVERSE EVENT","ADVERSE EVENT","DISPOSITION EVENT",NA,NA,"2013-03-29","2013-03-29",NA
"CDISCPILOT01","DS","01-710-1166",1,"ADVERSE EVENT","ADVERSE EVENT","DISPOSITION EVENT",NA,NA,"2013-03-30","2013-03-30",NA
"CDISCPILOT01","DS","01-709-1102",1,"ADVERSE EVENT","ADVERSE EVENT","DISPOSITION EVENT",NA,NA,"2013-03-31","2013-03-31",NA
"CDISCPILOT01","DS","01-716-1229",1,"ADVERSE EVENT","ADVERSE EVENT","DISPOSITION EVENT",NA,NA,"2013-04-02","2013-04-02",NA
"CDISCPILOT01","DS","01-711-1012",1,"ADVERSE EVENT","ADVERSE EVENT","DISPOSITION EVENT",NA,NA,"2013-05-02","2013-05-02",NA
"CDISCPILOT01","DS","01-708-1297",1,"ADVERSE EVENT","ADVERSE EVENT","DISPOSITION EVENT",NA,NA,"2013-05-08","2013-05-08",NA
"CDISCPILOT01","DS","01-715-1107",1,"ADVERSE EVENT","ADVERSE EVENT","DISPOSITION EVENT",NA,NA,"2013-05-13","2013-05-13",NA
"CDISCPILOT01","DS","01-711-1143",1,"ADVERSE EVENT","ADVERSE EVENT","DISPOSITION EVENT",NA,NA,"2013-06-01","2013-06-01",NA
"CDISCPILOT01","DS","01-716-1151",1,"ADVERSE EVENT","ADVERSE EVENT","DISPOSITION EVENT",NA,NA,"2013-06-07","2013-06-07",NA
"CDISCPILOT01","DS","01-703-1119",1,"ADVERSE EVENT","ADVERSE EVENT","DISPOSITION EVENT",NA,NA,"2013-06-13","2013-06-13",NA
"CDISCPILOT01","DS","01-701-1294",1,"ADVERSE EVENT","ADVERSE EVENT","DISPOSITION EVENT",NA,NA,"2013-06-14","2013-06-14",NA
"CDISCPILOT01","DS","01-708-1347",1,"ADVERSE EVENT","ADVERSE EVENT","DISPOSITION EVENT",NA,NA,"2013-06-18","2013-06-18",NA
"CDISCPILOT01","DS","01-704-1093",1,"ADVERSE EVENT","ADVERSE EVENT","DISPOSITION EVENT",NA,NA,"2013-06-20","2013-06-20",NA
"CDISCPILOT01","DS","01-706-1049",1,"ADVERSE EVENT","ADVERSE EVENT","DISPOSITION EVENT",NA,NA,"2013-06-25","2013-06-25",NA
"CDISCPILOT01","DS","01-709-1217",1,"ADVERSE EVENT","ADVERSE EVENT","DISPOSITION EVENT",NA,NA,"2013-06-25","2013-06-25",NA
"CDISCPILOT01","DS","01-701-1146",1,"ADVERSE EVENT","ADVERSE EVENT","DISPOSITION EVENT",NA,NA,"2013-06-30","2013-06-30",NA
"CDISCPILOT01","DS","01-716-1298",1,"ADVERSE EVENT","ADVERSE EVENT","DISPOSITION EVENT",NA,NA,"2013-07-06","2013-07-06",NA
"CDISCPILOT01","DS","01-715-1405",1,"ADVERSE EVENT","ADVERSE EVENT","DISPOSITION EVENT",NA,NA,"2013-07-13","2013-07-13",NA
"CDISCPILOT01","DS","01-710-1315",1,"ADVERSE EVENT","ADVERSE EVENT","DISPOSITION EVENT",NA,NA,"2013-07-16","2013-07-16",NA
"CDISCPILOT01","DS","01-718-1066",1,"ADVERSE EVENT","ADVERSE EVENT","DISPOSITION EVENT",NA,NA,"2013-07-30","2013-07-30",NA
"CDISCPILOT01","DS","01-716-1071",1,"ADVERSE EVENT","ADVERSE EVENT","DISPOSITION EVENT",NA,NA,"2013-08-01","2013-08-01",NA
"CDISCPILOT01","DS","01-713-1141",1,"ADVERSE EVENT","ADVERSE EVENT","DISPOSITION EVENT",NA,NA,"2013-08-06","2013-08-06",NA
"CDISCPILOT01","DS","01-709-1238",1,"ADVERSE EVENT","ADVERSE EVENT","DISPOSITION EVENT",NA,NA,"2013-08-07","2013-08-07",NA
"CDISCPILOT01","DS","01-704-1323",1,"ADVERSE EVENT","ADVERSE EVENT","DISPOSITION EVENT",NA,NA,"2013-08-08","2013-08-08",NA
"CDISCPILOT01","DS","01-718-1371",1,"ADVERSE EVENT","ADVERSE EVENT","DISPOSITION EVENT",NA,NA,"2013-08-08","2013-08-08",NA
"CDISCPILOT01","DS","01-710-1045",1,"ADVERSE EVENT","ADVERSE EVENT","DISPOSITION EVENT",NA,NA,"2013-08-17","2013-08-17",NA
"CDISCPILOT01","DS","01-716-1063",1,"ADVERSE EVENT","ADVERSE EVENT","DISPOSITION EVENT",NA,NA,"2013-08-28","2013-08-28",NA
"CDISCPILOT01","DS","01-708-1353",1,"ADVERSE EVENT","ADVERSE EVENT","DISPOSITION EVENT",NA,NA,"2013-09-10","2013-09-10",NA
"CDISCPILOT01","DS","01-709-1168",1,"ADVERSE EVENT","ADVERSE EVENT","DISPOSITION EVENT",NA,NA,"2013-09-27","2013-09-27",NA
"CDISCPILOT01","DS","01-705-1199",1,"ADVERSE EVENT","ADVERSE EVENT","DISPOSITION EVENT",NA,NA,"2013-09-29","2013-09-29",NA
"CDISCPILOT01","DS","01-710-1264",1,"ADVERSE EVENT","ADVERSE EVENT","DISPOSITION EVENT",NA,NA,"2013-10-12","2013-10-12",NA
"CDISCPILOT01","DS","01-714-1068",1,"ADVERSE EVENT","ADVERSE EVENT","DISPOSITION EVENT",NA,NA,"2013-10-16","2013-10-16",NA
"CDISCPILOT01","DS","01-704-1241",1,"ADVERSE EVENT","ADVERSE EVENT","DISPOSITION EVENT",NA,NA,"2013-10-31","2013-10-31",NA
"CDISCPILOT01","DS","01-718-1170",1,"ADVERSE EVENT","ADVERSE EVENT","DISPOSITION EVENT",NA,NA,"2013-11-03","2013-11-03",NA
"CDISCPILOT01","DS","01-701-1302",1,"ADVERSE EVENT","ADVERSE EVENT","DISPOSITION EVENT",NA,NA,"2013-11-05","2013-11-05",NA
"CDISCPILOT01","DS","01-710-1021",1,"ADVERSE EVENT","ADVERSE EVENT","DISPOSITION EVENT",NA,NA,"2013-11-12","2013-11-12",NA
"CDISCPILOT01","DS","01-710-1137",1,"ADVERSE EVENT","ADVERSE EVENT","DISPOSITION EVENT",NA,NA,"2013-11-13","2013-11-13",NA
"CDISCPILOT01","DS","01-704-1017",1,"ADVERSE EVENT","ADVERSE EVENT","DISPOSITION EVENT",NA,NA,"2013-11-24","2013-11-24",NA
"CDISCPILOT01","DS","01-704-1025",1,"ADVERSE EVENT","ADVERSE EVENT","DISPOSITION EVENT",NA,NA,"2013-11-29","2013-11-29",NA
"CDISCPILOT01","DS","01-705-1059",1,"ADVERSE EVENT","ADVERSE EVENT","DISPOSITION EVENT",NA,NA,"2013-12-05","2013-12-05",NA
"CDISCPILOT01","DS","01-704-1266",1,"ADVERSE EVENT","ADVERSE EVENT","DISPOSITION EVENT",NA,NA,"2013-12-06","2013-12-06",NA
"CDISCPILOT01","DS","01-701-1181",1,"ADVERSE EVENT","ADVERSE EVENT","DISPOSITION EVENT",NA,NA,"2013-12-12","2013-12-12",NA
"CDISCPILOT01","DS","01-703-1182",1,"ADVERSE EVENT","ADVERSE EVENT","DISPOSITION EVENT",NA,NA,"2013-12-12","2013-12-12",NA
"CDISCPILOT01","DS","01-703-1076",1,"ADVERSE EVENT","ADVERSE EVENT","DISPOSITION EVENT",NA,NA,"2013-12-24","2013-12-24",NA
"CDISCPILOT01","DS","01-704-1065",1,"ADVERSE EVENT","ADVERSE EVENT","DISPOSITION EVENT",NA,NA,"2013-12-24","2013-12-24",NA
"CDISCPILOT01","DS","01-710-1002",1,"ADVERSE EVENT","ADVERSE EVENT","DISPOSITION EVENT",NA,NA,"2014-01-18","2014-01-18",NA
"CDISCPILOT01","DS","01-705-1310",1,"ADVERSE EVENT","ADVERSE EVENT","DISPOSITION EVENT",NA,NA,"2014-01-23","2014-01-23",NA
"CDISCPILOT01","DS","01-708-1019",1,"ADVERSE EVENT","ADVERSE EVENT","DISPOSITION EVENT",NA,NA,"2014-01-23","2014-01-23",NA
"CDISCPILOT01","DS","01-708-1428",1,"ADVERSE EVENT","ADVERSE EVENT","DISPOSITION EVENT",NA,NA,"2014-01-31","2014-01-31",NA
"CDISCPILOT01","DS","01-704-1120",1,"ADVERSE EVENT","ADVERSE EVENT","DISPOSITION EVENT",NA,NA,"2014-02-03","2014-02-03",NA
"CDISCPILOT01","DS","01-718-1250",1,"ADVERSE EVENT","ADVERSE EVENT","DISPOSITION EVENT",NA,NA,"2014-02-08","2014-02-08",NA
"CDISCPILOT01","DS","01-704-1332",1,"ADVERSE EVENT","ADVERSE EVENT","DISPOSITION EVENT",NA,NA,"2014-02-16","2014-02-16",NA
"CDISCPILOT01","DS","01-710-1270",1,"ADVERSE EVENT","ADVERSE EVENT","DISPOSITION EVENT",NA,NA,"2014-03-01","2014-03-01",NA
"CDISCPILOT01","DS","01-705-1281",1,"ADVERSE EVENT","ADVERSE EVENT","DISPOSITION EVENT",NA,NA,"2014-03-17","2014-03-17",NA
"CDISCPILOT01","DS","01-708-1158",1,"ADVERSE EVENT","ADVERSE EVENT","DISPOSITION EVENT",NA,NA,"2014-03-22","2014-03-22",NA
"CDISCPILOT01","DS","01-704-1074",1,"ADVERSE EVENT","ADVERSE EVENT","DISPOSITION EVENT",NA,NA,"2014-03-31","2014-03-31",NA
"CDISCPILOT01","DS","01-715-1321",1,"ADVERSE EVENT","ADVERSE EVENT","DISPOSITION EVENT",NA,NA,"2014-04-22","2014-04-22",NA
"CDISCPILOT01","DS","01-710-1154",1,"ADVERSE EVENT","ADVERSE EVENT","DISPOSITION EVENT",NA,NA,"2014-05-09","2014-05-09",NA
"CDISCPILOT01","DS","01-709-1081",1,"ADVERSE EVENT","ADVERSE EVENT","DISPOSITION EVENT",NA,NA,"2014-05-10","2014-05-10",NA
"CDISCPILOT01","DS","01-713-1448",1,"ADVERSE EVENT","ADVERSE EVENT","DISPOSITION EVENT",NA,NA,"2014-05-17","2014-05-17",NA
"CDISCPILOT01","DS","01-705-1303",1,"ADVERSE EVENT","ADVERSE EVENT","DISPOSITION EVENT",NA,NA,"2014-06-02","2014-06-02",NA
"CDISCPILOT01","DS","01-709-1306",1,"ADVERSE EVENT","ADVERSE EVENT","DISPOSITION EVENT",NA,NA,"2014-06-25","2014-06-25",NA
"CDISCPILOT01","DS","01-703-1279",1,"CAREGIVER BECAME ILL","WITHDRAWAL BY SUBJECT","DISPOSITION EVENT",NA,NA,"2013-06-22","2013-06-22",NA
"CDISCPILOT01","DS","01-709-1329",1,"CAREGIVER BURDEN","WITHDRAWAL BY SUBJECT","DISPOSITION EVENT",NA,NA,"2013-08-29","2013-08-29",NA
"CDISCPILOT01","DS","01-703-1197",1,"CAREGIVER DECISION:  SEE COMMENT PAGE","WITHDRAWAL BY SUBJECT","DISPOSITION EVENT",NA,NA,"2013-07-22","2013-07-22",NA
"CDISCPILOT01","DS","01-710-1358",1,"CAREGIVER WAS HOSPITALIZED;SEE COMMENTS","WITHDRAWAL BY SUBJECT","DISPOSITION EVENT",NA,NA,"2013-03-12","2013-03-12",NA
"CDISCPILOT01","DS","01-715-1155",1,"CAREGIVER WITHDREW FROM STUDY","WITHDRAWAL BY SUBJECT","DISPOSITION EVENT",NA,NA,"2014-04-26","2014-04-26",NA
"CDISCPILOT01","DS","01-701-1211",1,"DEATH","DEATH","DISPOSITION EVENT",NA,NA,"2013-01-14","2013-01-14",NA
"CDISCPILOT01","DS","01-710-1083",1,"DEATH","DEATH","DISPOSITION EVENT",NA,NA,"2013-08-02","2013-08-02",NA
"CDISCPILOT01","DS","01-704-1445",1,"DEATH","DEATH","DISPOSITION EVENT",NA,NA,"2014-11-01","2014-11-01",NA
"CDISCPILOT01","DS","01-708-1178",1,"DR PUT PT ON AN EXCLUDED MEDICATION","PHYSICIAN DECISION","DISPOSITION EVENT",NA,NA,"2014-04-06","2014-04-06",NA
"CDISCPILOT01","DS","01-703-1295",1,"FAMILY WISHES TO DISCONTINUE","WITHDRAWAL BY SUBJECT","DISPOSITION EVENT",NA,NA,"2014-05-19","2014-05-19",NA
"CDISCPILOT01","DS","01-709-1007",2,"FINAL LAB VISIT","FINAL LAB VISIT","DISPOSITION EVENT",NA,NA,"2012-09-01","2012-09-01",NA
"CDISCPILOT01","DS","01-701-1023",2,"FINAL LAB VISIT","FINAL LAB VISIT","DISPOSITION EVENT",NA,NA,"2012-09-02","2012-09-02",NA
"CDISCPILOT01","DS","01-701-1111",2,"FINAL LAB VISIT","FINAL LAB VISIT","DISPOSITION EVENT",NA,NA,"2012-09-17","2012-09-17",NA
"CDISCPILOT01","DS","01-706-1384",2,"FINAL LAB VISIT","FINAL LAB VISIT","DISPOSITION EVENT",NA,NA,"2012-09-29","2012-09-29",NA
"CDISCPILOT01","DS","01-710-1142",2,"FINAL LAB VISIT","FINAL LAB VISIT","DISPOSITION EVENT",NA,NA,"2012-10-23","2012-10-23",NA
"CDISCPILOT01","DS","01-704-1260",1,"FINAL LAB VISIT","FINAL LAB VISIT","DISPOSITION EVENT",NA,NA,"2012-10-24","2012-10-24",NA
"CDISCPILOT01","DS","01-718-1079",2,"FINAL LAB VISIT","FINAL LAB VISIT","DISPOSITION EVENT",NA,NA,"2012-10-31","2012-10-31",NA
"CDISCPILOT01","DS","01-710-1271",2,"FINAL LAB VISIT","FINAL LAB VISIT","DISPOSITION EVENT",NA,NA,"2012-11-08","2012-11-08",NA
"CDISCPILOT01","DS","01-708-1216",2,"FINAL LAB VISIT","FINAL LAB VISIT","DISPOSITION EVENT",NA,NA,"2012-12-06","2012-12-06",NA
"CDISCPILOT01","DS","01-703-1403",2,"FINAL LAB VISIT","FINAL LAB VISIT","DISPOSITION EVENT",NA,NA,"2012-12-19","2012-12-19",NA
"CDISCPILOT01","DS","01-703-1086",2,"FINAL LAB VISIT","FINAL LAB VISIT","DISPOSITION EVENT",NA,NA,"2012-12-24","2012-12-24",NA
"CDISCPILOT01","DS","01-710-1070",2,"FINAL LAB VISIT","FINAL LAB VISIT","DISPOSITION EVENT",NA,NA,"2012-12-28","2012-12-28",NA
"CDISCPILOT01","DS","01-703-1258",2,"FINAL LAB VISIT","FINAL LAB VISIT","DISPOSITION EVENT",NA,NA,"2012-12-31","2012-12-31",NA
"CDISCPILOT01","DS","01-701-1211",2,"FINAL LAB VISIT","FINAL LAB VISIT","DISPOSITION EVENT",NA,NA,"2013-01-08","2013-01-08",NA
"CDISCPILOT01","DS","01-704-1435",1,"FINAL LAB VISIT","FINAL LAB VISIT","DISPOSITION EVENT",NA,NA,"2013-01-12","2013-01-12",NA
"CDISCPILOT01","DS","01-701-1192",1,"FINAL LAB VISIT","FINAL LAB VISIT","DISPOSITION EVENT",NA,NA,"2013-01-20","2013-01-20",NA
"CDISCPILOT01","DS","01-716-1024",1,"FINAL LAB VISIT","FINAL LAB VISIT","DISPOSITION EVENT",NA,NA,"2013-01-20","2013-01-20",NA
"CDISCPILOT01","DS","01-701-1115",2,"FINAL LAB VISIT","FINAL LAB VISIT","DISPOSITION EVENT",NA,NA,"2013-01-23","2013-01-23",NA
"CDISCPILOT01","DS","01-716-1094",2,"FINAL LAB VISIT","FINAL LAB VISIT","DISPOSITION EVENT",NA,NA,"2013-01-26","2013-01-26",NA
"CDISCPILOT01","DS","01-710-1358",2,"FINAL LAB VISIT","FINAL LAB VISIT","DISPOSITION EVENT",NA,NA,"2013-02-06","2013-02-06",NA
"CDISCPILOT01","DS","01-711-1433",2,"FINAL LAB VISIT","FINAL LAB VISIT","DISPOSITION EVENT",NA,NA,"2013-02-06","2013-02-06",NA
"CDISCPILOT01","DS","01-701-1341",2,"FINAL LAB VISIT","FINAL LAB VISIT","DISPOSITION EVENT",NA,NA,"2013-02-07","2013-02-07",NA
"CDISCPILOT01","DS","01-711-1036",1,"FINAL LAB VISIT","FINAL LAB VISIT","DISPOSITION EVENT",NA,NA,"2013-02-10","2013-02-10",NA
"CDISCPILOT01","DS","01-701-1444",2,"FINAL LAB VISIT","FINAL LAB VISIT","DISPOSITION EVENT",NA,NA,"2013-02-13","2013-02-13",NA
"CDISCPILOT01","DS","01-710-1385",2,"FINAL LAB VISIT","FINAL LAB VISIT","DISPOSITION EVENT",NA,NA,"2013-02-18","2013-02-18",NA
"CDISCPILOT01","DS","01-718-1427",1,"FINAL LAB VISIT","FINAL LAB VISIT","DISPOSITION EVENT",NA,NA,"2013-02-18","2013-02-18",NA
"CDISCPILOT01","DS","01-710-1300",2,"FINAL LAB VISIT","FINAL LAB VISIT","DISPOSITION EVENT",NA,NA,"2013-02-19","2013-02-19",NA
"CDISCPILOT01","DS","01-705-1393",2,"FINAL LAB VISIT","FINAL LAB VISIT","DISPOSITION EVENT",NA,NA,"2013-02-20","2013-02-20",NA
"CDISCPILOT01","DS","01-708-1213",2,"FINAL LAB VISIT","FINAL LAB VISIT","DISPOSITION EVENT",NA,NA,"2013-02-22","2013-02-22",NA
"CDISCPILOT01","DS","01-703-1096",1,"FINAL LAB VISIT","FINAL LAB VISIT","DISPOSITION EVENT",NA,NA,"2013-02-23","2013-02-23",NA
"CDISCPILOT01","DS","01-704-1008",2,"FINAL LAB VISIT","FINAL LAB VISIT","DISPOSITION EVENT",NA,NA,"2013-02-25","2013-02-25",NA
"CDISCPILOT01","DS","01-710-1053",2,"FINAL LAB VISIT","FINAL LAB VISIT","DISPOSITION EVENT",NA,NA,"2013-02-26","2013-02-26",NA
"CDISCPILOT01","DS","01-716-1373",2,"FINAL LAB VISIT","FINAL LAB VISIT","DISPOSITION EVENT",NA,NA,"2013-02-28","2013-02-28",NA
"CDISCPILOT01","DS","01-716-1189",2,"FINAL LAB VISIT","FINAL LAB VISIT","DISPOSITION EVENT",NA,NA,"2013-03-03","2013-03-03",NA
"CDISCPILOT01","DS","01-710-1278",2,"FINAL LAB VISIT","FINAL LAB VISIT","DISPOSITION EVENT",NA,NA,"2013-03-07","2013-03-07",NA
"CDISCPILOT01","DS","01-708-1032",2,"FINAL LAB VISIT","FINAL LAB VISIT","DISPOSITION EVENT",NA,NA,"2013-03-09","2013-03-09",NA
"CDISCPILOT01","DS","01-703-1299",1,"FINAL LAB VISIT","FINAL LAB VISIT","DISPOSITION EVENT",NA,NA,"2013-03-13","2013-03-13",NA
"CDISCPILOT01","DS","01-709-1424",2,"FINAL LAB VISIT","FINAL LAB VISIT","DISPOSITION EVENT",NA,NA,"2013-03-17","2013-03-17",NA
"CDISCPILOT01","DS","01-715-1319",1,"FINAL LAB VISIT","FINAL LAB VISIT","DISPOSITION EVENT",NA,NA,"2013-03-18","2013-03-18",NA
"CDISCPILOT01","DS","01-701-1180",2,"FINAL LAB VISIT","FINAL LAB VISIT","DISPOSITION EVENT",NA,NA,"2013-03-23","2013-03-23",NA
"CDISCPILOT01","DS","01-701-1188",2,"FINAL LAB VISIT","FINAL LAB VISIT","DISPOSITION EVENT",NA,NA,"2013-03-25","2013-03-25",NA
"CDISCPILOT01","DS","01-713-1256",1,"FINAL LAB VISIT","FINAL LAB VISIT","DISPOSITION EVENT",NA,NA,"2013-03-25","2013-03-25",NA
"CDISCPILOT01","DS","01-710-1235",1,"FINAL LAB VISIT","FINAL LAB VISIT","DISPOSITION EVENT",NA,NA,"2013-03-27","2013-03-27",NA
"CDISCPILOT01","DS","01-710-1166",2,"FINAL LAB VISIT","FINAL LAB VISIT","DISPOSITION EVENT",NA,NA,"2013-03-30","2013-03-30",NA
"CDISCPILOT01","DS","01-709-1102",2,"FINAL LAB VISIT","FINAL LAB VISIT","DISPOSITION EVENT",NA,NA,"2013-03-31","2013-03-31",NA
"CDISCPILOT01","DS","01-701-1324",1,"FINAL LAB VISIT","FINAL LAB VISIT","DISPOSITION EVENT",NA,NA,"2013-04-02","2013-04-02",NA
"CDISCPILOT01","DS","01-716-1229",2,"FINAL LAB VISIT","FINAL LAB VISIT","DISPOSITION EVENT",NA,NA,"2013-04-02","2013-04-02",NA
"CDISCPILOT01","DS","01-708-1372",1,"FINAL LAB VISIT","FINAL LAB VISIT","DISPOSITION EVENT",NA,NA,"2013-04-03","2013-04-03",NA
"CDISCPILOT01","DS","01-704-1164",1,"FINAL LAB VISIT","FINAL LAB VISIT","DISPOSITION EVENT",NA,NA,"2013-04-04","2013-04-04",NA
"CDISCPILOT01","DS","01-708-1272",1,"FINAL LAB VISIT","FINAL LAB VISIT","DISPOSITION EVENT",NA,NA,"2013-04-04","2013-04-04",NA
"CDISCPILOT01","DS","01-701-1047",2,"FINAL LAB VISIT","FINAL LAB VISIT","DISPOSITION EVENT",NA,NA,"2013-04-07","2013-04-07",NA
"CDISCPILOT01","DS","01-716-1167",1,"FINAL LAB VISIT","FINAL LAB VISIT","DISPOSITION EVENT",NA,NA,"2013-04-13","2013-04-13",NA
"CDISCPILOT01","DS","01-703-1279",2,"FINAL LAB VISIT","FINAL LAB VISIT","DISPOSITION EVENT",NA,NA,"2013-04-27","2013-04-27",NA
"CDISCPILOT01","DS","01-701-1392",1,"FINAL LAB VISIT","FINAL LAB VISIT","DISPOSITION EVENT",NA,NA,"2013-04-28","2013-04-28",NA
"CDISCPILOT01","DS","01-708-1087",1,"FINAL LAB VISIT","FINAL LAB VISIT","DISPOSITION EVENT",NA,NA,"2013-04-28","2013-04-28",NA
"CDISCPILOT01","DS","01-701-1133",1,"FINAL LAB VISIT","FINAL LAB VISIT","DISPOSITION EVENT",NA,NA,"2013-04-29","2013-04-29",NA
"CDISCPILOT01","DS","01-701-1429",1,"FINAL LAB VISIT","FINAL LAB VISIT","DISPOSITION EVENT",NA,NA,"2013-04-30","2013-04-30",NA
"CDISCPILOT01","DS","01-710-1354",1,"FINAL LAB VISIT","FINAL LAB VISIT","DISPOSITION EVENT",NA,NA,"2013-05-01","2013-05-01",NA
"CDISCPILOT01","DS","01-718-1328",1,"FINAL LAB VISIT","FINAL LAB VISIT","DISPOSITION EVENT",NA,NA,"2013-05-01","2013-05-01",NA
"CDISCPILOT01","DS","01-711-1012",2,"FINAL LAB VISIT","FINAL LAB VISIT","DISPOSITION EVENT",NA,NA,"2013-05-02","2013-05-02",NA
"CDISCPILOT01","DS","01-713-1106",1,"FINAL LAB VISIT","FINAL LAB VISIT","DISPOSITION EVENT",NA,NA,"2013-05-06","2013-05-06",NA
"CDISCPILOT01","DS","01-708-1297",2,"FINAL LAB VISIT","FINAL LAB VISIT","DISPOSITION EVENT",NA,NA,"2013-05-08","2013-05-08",NA
"CDISCPILOT01","DS","01-705-1382",1,"FINAL LAB VISIT","FINAL LAB VISIT","DISPOSITION EVENT",NA,NA,"2013-05-09","2013-05-09",NA
"CDISCPILOT01","DS","01-710-1187",1,"FINAL LAB VISIT","FINAL LAB VISIT","DISPOSITION EVENT",NA,NA,"2013-05-12","2013-05-12",NA
"CDISCPILOT01","DS","01-710-1314",1,"FINAL LAB VISIT","FINAL LAB VISIT","DISPOSITION EVENT",NA,NA,"2013-05-23","2013-05-23",NA
"CDISCPILOT01","DS","01-704-1218",1,"FINAL LAB VISIT","FINAL LAB VISIT","DISPOSITION EVENT",NA,NA,"2013-05-27","2013-05-27",NA
"CDISCPILOT01","DS","01-709-1285",1,"FINAL LAB VISIT","FINAL LAB VISIT","DISPOSITION EVENT",NA,NA,"2013-05-31","2013-05-31",NA
"CDISCPILOT01","DS","01-703-1197",2,"FINAL LAB VISIT","FINAL LAB VISIT","DISPOSITION EVENT",NA,NA,"2013-06-01","2013-06-01",NA
"CDISCPILOT01","DS","01-709-1020",1,"FINAL LAB VISIT","FINAL LAB VISIT","DISPOSITION EVENT",NA,NA,"2013-06-01","2013-06-01",NA
"CDISCPILOT01","DS","01-711-1143",2,"FINAL LAB VISIT","FINAL LAB VISIT","DISPOSITION EVENT",NA,NA,"2013-06-01","2013-06-01",NA
"CDISCPILOT01","DS","01-715-1207",1,"FINAL LAB VISIT","FINAL LAB VISIT","DISPOSITION EVENT",NA,NA,"2013-06-01","2013-06-01",NA
"CDISCPILOT01","DS","01-708-1171",1,"FINAL LAB VISIT","FINAL LAB VISIT","DISPOSITION EVENT",NA,NA,"2013-06-03","2013-06-03",NA
"CDISCPILOT01","DS","01-708-1336",1,"FINAL LAB VISIT","FINAL LAB VISIT","DISPOSITION EVENT",NA,NA,"2013-06-05","2013-06-05",NA
"CDISCPILOT01","DS","01-716-1151",2,"FINAL LAB VISIT","FINAL LAB VISIT","DISPOSITION EVENT",NA,NA,"2013-06-07","2013-06-07",NA
"CDISCPILOT01","DS","01-703-1119",2,"FINAL LAB VISIT","FINAL LAB VISIT","DISPOSITION EVENT",NA,NA,"2013-06-13","2013-06-13",NA
"CDISCPILOT01","DS","01-709-1259",1,"FINAL LAB VISIT","FINAL LAB VISIT","DISPOSITION EVENT",NA,NA,"2013-06-13","2013-06-13",NA
"CDISCPILOT01","DS","01-701-1294",2,"FINAL LAB VISIT","FINAL LAB VISIT","DISPOSITION EVENT",NA,NA,"2013-06-14","2013-06-14",NA
"CDISCPILOT01","DS","01-708-1347",2,"FINAL LAB VISIT","FINAL LAB VISIT","DISPOSITION EVENT",NA,NA,"2013-06-18","2013-06-18",NA
"CDISCPILOT01","DS","01-704-1388",1,"FINAL LAB VISIT","FINAL LAB VISIT","DISPOSITION EVENT",NA,NA,"2013-06-19","2013-06-19",NA
"CDISCPILOT01","DS","01-704-1093",2,"FINAL LAB VISIT","FINAL LAB VISIT","DISPOSITION EVENT",NA,NA,"2013-06-20","2013-06-20",NA
"CDISCPILOT01","DS","01-705-1282",1,"FINAL LAB VISIT","FINAL LAB VISIT","DISPOSITION EVENT",NA,NA,"2013-06-24","2013-06-24",NA
"CDISCPILOT01","DS","01-709-1339",1,"FINAL LAB VISIT","FINAL LAB VISIT","DISPOSITION EVENT",NA,NA,"2013-06-24","2013-06-24",NA
"CDISCPILOT01","DS","01-706-1049",2,"FINAL LAB VISIT","FINAL LAB VISIT","DISPOSITION EVENT",NA,NA,"2013-06-25","2013-06-25",NA
"CDISCPILOT01","DS","01-709-1217",2,"FINAL LAB VISIT","FINAL LAB VISIT","DISPOSITION EVENT",NA,NA,"2013-06-25","2013-06-25",NA
"CDISCPILOT01","DS","01-709-1029",1,"FINAL LAB VISIT","FINAL LAB VISIT","DISPOSITION EVENT",NA,NA,"2013-06-26","2013-06-26",NA
"CDISCPILOT01","DS","01-708-1342",1,"FINAL LAB VISIT","FINAL LAB VISIT","DISPOSITION EVENT",NA,NA,"2013-06-28","2013-06-28",NA
"CDISCPILOT01","DS","01-701-1146",2,"FINAL LAB VISIT","FINAL LAB VISIT","DISPOSITION EVENT",NA,NA,"2013-06-30","2013-06-30",NA
"CDISCPILOT01","DS","01-705-1018",1,"FINAL LAB VISIT","FINAL LAB VISIT","DISPOSITION EVENT",NA,NA,"2013-06-30","2013-06-30",NA
"CDISCPILOT01","DS","01-710-1060",1,"FINAL LAB VISIT","FINAL LAB VISIT","DISPOSITION EVENT",NA,NA,"2013-07-05","2013-07-05",NA
"CDISCPILOT01","DS","01-716-1298",2,"FINAL LAB VISIT","FINAL LAB VISIT","DISPOSITION EVENT",NA,NA,"2013-07-06","2013-07-06",NA
"CDISCPILOT01","DS","01-704-1114",1,"FINAL LAB VISIT","FINAL LAB VISIT","DISPOSITION EVENT",NA,NA,"2013-07-08","2013-07-08",NA
"CDISCPILOT01","DS","01-710-1083",2,"FINAL LAB VISIT","FINAL LAB VISIT","DISPOSITION EVENT",NA,NA,"2013-07-09","2013-07-09",NA
"CDISCPILOT01","DS","01-704-1233",1,"FINAL LAB VISIT","FINAL LAB VISIT","DISPOSITION EVENT",NA,NA,"2013-07-11","2013-07-11",NA
"CDISCPILOT01","DS","01-710-1408",1,"FINAL LAB VISIT","FINAL LAB VISIT","DISPOSITION EVENT",NA,NA,"2013-07-12","2013-07-12",NA
"CDISCPILOT01","DS","01-715-1405",2,"FINAL LAB VISIT","FINAL LAB VISIT","DISPOSITION EVENT",NA,NA,"2013-07-13","2013-07-13",NA
"CDISCPILOT01","DS","01-710-1315",2,"FINAL LAB VISIT","FINAL LAB VISIT","DISPOSITION EVENT",NA,NA,"2013-07-16","2013-07-16",NA
"CDISCPILOT01","DS","01-717-1174",1,"FINAL LAB VISIT","FINAL LAB VISIT","DISPOSITION EVENT",NA,NA,"2013-07-24","2013-07-24",NA
"CDISCPILOT01","DS","01-718-1066",2,"FINAL LAB VISIT","FINAL LAB VISIT","DISPOSITION EVENT",NA,NA,"2013-07-30","2013-07-30",NA
"CDISCPILOT01","DS","01-718-1150",1,"FINAL LAB VISIT","FINAL LAB VISIT","DISPOSITION EVENT",NA,NA,"2013-07-31","2013-07-31",NA
"CDISCPILOT01","DS","01-716-1071",2,"FINAL LAB VISIT","FINAL LAB VISIT","DISPOSITION EVENT",NA,NA,"2013-08-01","2013-08-01",NA
"CDISCPILOT01","DS","01-718-1371",2,"FINAL LAB VISIT","FINAL LAB VISIT","DISPOSITION EVENT",NA,NA,"2013-08-01","2013-08-01",NA
"CDISCPILOT01","DS","01-718-1101",1,"FINAL LAB VISIT","FINAL LAB VISIT","DISPOSITION EVENT",NA,NA,"2013-08-02","2013-08-02",NA
"CDISCPILOT01","DS","01-701-1203",1,"FINAL LAB VISIT","FINAL LAB VISIT","DISPOSITION EVENT",NA,NA,"2013-08-03","2013-08-03",NA
"CDISCPILOT01","DS","01-704-1323",2,"FINAL LAB VISIT","FINAL LAB VISIT","DISPOSITION EVENT",NA,NA,"2013-08-04","2013-08-04",NA
"CDISCPILOT01","DS","01-701-1383",1,"FINAL LAB VISIT","FINAL LAB VISIT","DISPOSITION EVENT",NA,NA,"2013-08-06","2013-08-06",NA
"CDISCPILOT01","DS","01-713-1141",2,"FINAL LAB VISIT","FINAL LAB VISIT","DISPOSITION EVENT",NA,NA,"2013-08-06","2013-08-06",NA
"CDISCPILOT01","DS","01-709-1238",2,"FINAL LAB VISIT","FINAL LAB VISIT","DISPOSITION EVENT",NA,NA,"2013-08-07","2013-08-07",NA
"CDISCPILOT01","DS","01-710-1006",1,"FINAL LAB VISIT","FINAL LAB VISIT","DISPOSITION EVENT",NA,NA,"2013-08-10","2013-08-10",NA
"CDISCPILOT01","DS","01-716-1108",1,"FINAL LAB VISIT","FINAL LAB VISIT","DISPOSITION EVENT",NA,NA,"2013-08-10","2013-08-10",NA
"CDISCPILOT01","DS","01-701-1360",1,"FINAL LAB VISIT","FINAL LAB VISIT","DISPOSITION EVENT",NA,NA,"2013-08-14","2013-08-14",NA
"CDISCPILOT01","DS","01-715-1107",2,"FINAL LAB VISIT","FINAL LAB VISIT","DISPOSITION EVENT",NA,NA,"2013-08-14","2013-08-14",NA
"CDISCPILOT01","DS","01-710-1045",2,"FINAL LAB VISIT","FINAL LAB VISIT","DISPOSITION EVENT",NA,NA,"2013-08-17","2013-08-17",NA
"CDISCPILOT01","DS","01-715-1085",1,"FINAL LAB VISIT","FINAL LAB VISIT","DISPOSITION EVENT",NA,NA,"2013-08-18","2013-08-18",NA
"CDISCPILOT01","DS","01-714-1425",1,"FINAL LAB VISIT","FINAL LAB VISIT","DISPOSITION EVENT",NA,NA,"2013-08-22","2013-08-22",NA
"CDISCPILOT01","DS","01-716-1063",2,"FINAL LAB VISIT","FINAL LAB VISIT","DISPOSITION EVENT",NA,NA,"2013-08-28","2013-08-28",NA
"CDISCPILOT01","DS","01-709-1329",2,"FINAL LAB VISIT","FINAL LAB VISIT","DISPOSITION EVENT",NA,NA,"2013-08-29","2013-08-29",NA
"CDISCPILOT01","DS","01-718-1355",1,"FINAL LAB VISIT","FINAL LAB VISIT","DISPOSITION EVENT",NA,NA,"2013-08-29","2013-08-29",NA
"CDISCPILOT01","DS","01-703-1042",1,"FINAL LAB VISIT","FINAL LAB VISIT","DISPOSITION EVENT",NA,NA,"2013-08-31","2013-08-31",NA
"CDISCPILOT01","DS","01-703-1210",1,"FINAL LAB VISIT","FINAL LAB VISIT","DISPOSITION EVENT",NA,NA,"2013-09-06","2013-09-06",NA
"CDISCPILOT01","DS","01-714-1375",1,"FINAL LAB VISIT","FINAL LAB VISIT","DISPOSITION EVENT",NA,NA,"2013-09-07","2013-09-07",NA
"CDISCPILOT01","DS","01-705-1349",1,"FINAL LAB VISIT","FINAL LAB VISIT","DISPOSITION EVENT",NA,NA,"2013-09-08","2013-09-08",NA
"CDISCPILOT01","DS","01-708-1353",2,"FINAL LAB VISIT","FINAL LAB VISIT","DISPOSITION EVENT",NA,NA,"2013-09-10","2013-09-10",NA
"CDISCPILOT01","DS","01-703-1100",1,"FINAL LAB VISIT","FINAL LAB VISIT","DISPOSITION EVENT",NA,NA,"2013-09-14","2013-09-14",NA
"CDISCPILOT01","DS","01-704-1009",1,"FINAL LAB VISIT","FINAL LAB VISIT","DISPOSITION EVENT",NA,NA,"2013-09-14","2013-09-14",NA
"CDISCPILOT01","DS","01-708-1236",1,"FINAL LAB VISIT","FINAL LAB VISIT","DISPOSITION EVENT",NA,NA,"2013-09-19","2013-09-19",NA
"CDISCPILOT01","DS","01-701-1234",1,"FINAL LAB VISIT","FINAL LAB VISIT","DISPOSITION EVENT",NA,NA,"2013-09-22","2013-09-22",NA
"CDISCPILOT01","DS","01-709-1168",2,"FINAL LAB VISIT","FINAL LAB VISIT","DISPOSITION EVENT",NA,NA,"2013-09-27","2013-09-27",NA
"CDISCPILOT01","DS","01-705-1199",2,"FINAL LAB VISIT","FINAL LAB VISIT","DISPOSITION EVENT",NA,NA,"2013-09-29","2013-09-29",NA
"CDISCPILOT01","DS","01-709-1326",1,"FINAL LAB VISIT","FINAL LAB VISIT","DISPOSITION EVENT",NA,NA,"2013-10-02","2013-10-02",NA
"CDISCPILOT01","DS","01-715-1397",1,"FINAL LAB VISIT","FINAL LAB VISIT","DISPOSITION EVENT",NA,NA,"2013-10-03","2013-10-03",NA
"CDISCPILOT01","DS","01-716-1308",1,"FINAL LAB VISIT","FINAL LAB VISIT","DISPOSITION EVENT",NA,NA,"2013-10-07","2013-10-07",NA
"CDISCPILOT01","DS","01-716-1160",1,"FINAL LAB VISIT","FINAL LAB VISIT","DISPOSITION EVENT",NA,NA,"2013-10-11","2013-10-11",NA
"CDISCPILOT01","DS","01-710-1264",2,"FINAL LAB VISIT","FINAL LAB VISIT","DISPOSITION EVENT",NA,NA,"2013-10-12","2013-10-12",NA
"CDISCPILOT01","DS","01-714-1068",2,"FINAL LAB VISIT","FINAL LAB VISIT","DISPOSITION EVENT",NA,NA,"2013-10-16","2013-10-16",NA
"CDISCPILOT01","DS","01-717-1357",1,"FINAL LAB VISIT","FINAL LAB VISIT","DISPOSITION EVENT",NA,NA,"2013-10-20","2013-10-20",NA
"CDISCPILOT01","DS","01-714-1195",1,"FINAL LAB VISIT","FINAL LAB VISIT","DISPOSITION EVENT",NA,NA,"2013-10-23","2013-10-23",NA
"CDISCPILOT01","DS","01-704-1241",2,"FINAL LAB VISIT","FINAL LAB VISIT","DISPOSITION EVENT",NA,NA,"2013-10-31","2013-10-31",NA
"CDISCPILOT01","DS","01-704-1017",2,"FINAL LAB VISIT","FINAL LAB VISIT","DISPOSITION EVENT",NA,NA,"2013-11-01","2013-11-01",NA
"CDISCPILOT01","DS","01-716-1044",1,"FINAL LAB VISIT","FINAL LAB VISIT","DISPOSITION EVENT",NA,NA,"2013-11-03","2013-11-03",NA
"CDISCPILOT01","DS","01-718-1170",2,"FINAL LAB VISIT","FINAL LAB VISIT","DISPOSITION EVENT",NA,NA,"2013-11-03","2013-11-03",NA
"CDISCPILOT01","DS","01-708-1253",1,"FINAL LAB VISIT","FINAL LAB VISIT","DISPOSITION EVENT",NA,NA,"2013-11-04","2013-11-04",NA
"CDISCPILOT01","DS","01-701-1302",2,"FINAL LAB VISIT","FINAL LAB VISIT","DISPOSITION EVENT",NA,NA,"2013-11-05","2013-11-05",NA
"CDISCPILOT01","DS","01-708-1084",1,"FINAL LAB VISIT","FINAL LAB VISIT","DISPOSITION EVENT",NA,NA,"2013-11-11","2013-11-11",NA
"CDISCPILOT01","DS","01-710-1021",2,"FINAL LAB VISIT","FINAL LAB VISIT","DISPOSITION EVENT",NA,NA,"2013-11-12","2013-11-12",NA
"CDISCPILOT01","DS","01-710-1137",2,"FINAL LAB VISIT","FINAL LAB VISIT","DISPOSITION EVENT",NA,NA,"2013-11-13","2013-11-13",NA
"CDISCPILOT01","DS","01-702-1082",1,"FINAL LAB VISIT","FINAL LAB VISIT","DISPOSITION EVENT",NA,NA,"2013-11-17","2013-11-17",NA
"CDISCPILOT01","DS","01-718-1139",1,"FINAL LAB VISIT","FINAL LAB VISIT","DISPOSITION EVENT",NA,NA,"2013-11-17","2013-11-17",NA
"CDISCPILOT01","DS","01-716-1418",1,"FINAL LAB VISIT","FINAL LAB VISIT","DISPOSITION EVENT",NA,NA,"2013-11-20","2013-11-20",NA
"CDISCPILOT01","DS","01-713-1209",1,"FINAL LAB VISIT","FINAL LAB VISIT","DISPOSITION EVENT",NA,NA,"2013-11-22","2013-11-22",NA
"CDISCPILOT01","DS","01-701-1363",1,"FINAL LAB VISIT","FINAL LAB VISIT","DISPOSITION EVENT",NA,NA,"2013-11-27","2013-11-27",NA
"CDISCPILOT01","DS","01-704-1025",2,"FINAL LAB VISIT","FINAL LAB VISIT","DISPOSITION EVENT",NA,NA,"2013-11-29","2013-11-29",NA
"CDISCPILOT01","DS","01-718-1172",1,"FINAL LAB VISIT","FINAL LAB VISIT","DISPOSITION EVENT",NA,NA,"2013-11-29","2013-11-29",NA
"CDISCPILOT01","DS","01-705-1059",2,"FINAL LAB VISIT","FINAL LAB VISIT","DISPOSITION EVENT",NA,NA,"2013-12-05","2013-12-05",NA
"CDISCPILOT01","DS","01-704-1266",2,"FINAL LAB VISIT","FINAL LAB VISIT","DISPOSITION EVENT",NA,NA,"2013-12-06","2013-12-06",NA
"CDISCPILOT01","DS","01-701-1181",2,"FINAL LAB VISIT","FINAL LAB VISIT","DISPOSITION EVENT",NA,NA,"2013-12-12","2013-12-12",NA
"CDISCPILOT01","DS","01-703-1182",2,"FINAL LAB VISIT","FINAL LAB VISIT","DISPOSITION EVENT",NA,NA,"2013-12-12","2013-12-12",NA
"CDISCPILOT01","DS","01-708-1296",1,"FINAL LAB VISIT","FINAL LAB VISIT","DISPOSITION EVENT",NA,NA,"2013-12-12","2013-12-12",NA
"CDISCPILOT01","DS","01-705-1431",1,"FINAL LAB VISIT","FINAL LAB VISIT","DISPOSITION EVENT",NA,NA,"2013-12-19","2013-12-19",NA
"CDISCPILOT01","DS","01-709-1309",1,"FINAL LAB VISIT","FINAL LAB VISIT","DISPOSITION EVENT",NA,NA,"2013-12-19","2013-12-19",NA
"CDISCPILOT01","DS","01-703-1076",2,"FINAL LAB VISIT","FINAL LAB VISIT","DISPOSITION EVENT",NA,NA,"2013-12-24","2013-12-24",NA
"CDISCPILOT01","DS","01-704-1065",2,"FINAL LAB VISIT","FINAL LAB VISIT","DISPOSITION EVENT",NA,NA,"2013-12-24","2013-12-24",NA
"CDISCPILOT01","DS","01-703-1175",1,"FINAL LAB VISIT","FINAL LAB VISIT","DISPOSITION EVENT",NA,NA,"2013-12-31","2013-12-31",NA
"CDISCPILOT01","DS","01-707-1037",1,"FINAL LAB VISIT","FINAL LAB VISIT","DISPOSITION EVENT",NA,NA,"2014-01-08","2014-01-08",NA
"CDISCPILOT01","DS","01-716-1364",1,"FINAL LAB VISIT","FINAL LAB VISIT","DISPOSITION EVENT",NA,NA,"2014-01-09","2014-01-09",NA
"CDISCPILOT01","DS","01-718-1254",1,"FINAL LAB VISIT","FINAL LAB VISIT","DISPOSITION EVENT",NA,NA,"2014-01-09","2014-01-09",NA
"CDISCPILOT01","DS","01-715-1155",2,"FINAL LAB VISIT","FINAL LAB VISIT","DISPOSITION EVENT",NA,NA,"2014-01-10","2014-01-10",NA
"CDISCPILOT01","DS","01-716-1030",1,"FINAL LAB VISIT","FINAL LAB VISIT","DISPOSITION EVENT",NA,NA,"2014-01-10","2014-01-10",NA
"CDISCPILOT01","DS","01-701-1028",1,"FINAL LAB VISIT","FINAL LAB VISIT","DISPOSITION EVENT",NA,NA,"2014-01-14","2014-01-14",NA
"CDISCPILOT01","DS","01-709-1301",1,"FINAL LAB VISIT","FINAL LAB VISIT","DISPOSITION EVENT",NA,NA,"2014-01-17","2014-01-17",NA
"CDISCPILOT01","DS","01-710-1002",2,"FINAL LAB VISIT","FINAL LAB VISIT","DISPOSITION EVENT",NA,NA,"2014-01-18","2014-01-18",NA
"CDISCPILOT01","DS","01-705-1310",2,"FINAL LAB VISIT","FINAL LAB VISIT","DISPOSITION EVENT",NA,NA,"2014-01-23","2014-01-23",NA
"CDISCPILOT01","DS","01-708-1019",2,"FINAL LAB VISIT","FINAL LAB VISIT","DISPOSITION EVENT",NA,NA,"2014-01-23","2014-01-23",NA
"CDISCPILOT01","DS","01-708-1378",1,"FINAL LAB VISIT","FINAL LAB VISIT","DISPOSITION EVENT",NA,NA,"2014-01-28","2014-01-28",NA
"CDISCPILOT01","DS","01-708-1428",2,"FINAL LAB VISIT","FINAL LAB VISIT","DISPOSITION EVENT",NA,NA,"2014-01-31","2014-01-31",NA
"CDISCPILOT01","DS","01-704-1120",2,"FINAL LAB VISIT","FINAL LAB VISIT","DISPOSITION EVENT",NA,NA,"2014-02-03","2014-02-03",NA
"CDISCPILOT01","DS","01-701-1440",1,"FINAL LAB VISIT","FINAL LAB VISIT","DISPOSITION EVENT",NA,NA,"2014-02-05","2014-02-05",NA
"CDISCPILOT01","DS","01-713-1179",1,"FINAL LAB VISIT","FINAL LAB VISIT","DISPOSITION EVENT",NA,NA,"2014-02-05","2014-02-05",NA
"CDISCPILOT01","DS","01-705-1186",1,"FINAL LAB VISIT","FINAL LAB VISIT","DISPOSITION EVENT",NA,NA,"2014-02-07","2014-02-07",NA
"CDISCPILOT01","DS","01-705-1377",1,"FINAL LAB VISIT","FINAL LAB VISIT","DISPOSITION EVENT",NA,NA,"2014-02-07","2014-02-07",NA
"CDISCPILOT01","DS","01-718-1250",2,"FINAL LAB VISIT","FINAL LAB VISIT","DISPOSITION EVENT",NA,NA,"2014-02-08","2014-02-08",NA
"CDISCPILOT01","DS","01-708-1348",1,"FINAL LAB VISIT","FINAL LAB VISIT","DISPOSITION EVENT",NA,NA,"2014-02-13","2014-02-13",NA
"CDISCPILOT01","DS","01-704-1332",2,"FINAL LAB VISIT","FINAL LAB VISIT","DISPOSITION EVENT",NA,NA,"2014-02-16","2014-02-16",NA
"CDISCPILOT01","DS","01-701-1148",1,"FINAL LAB VISIT","FINAL LAB VISIT","DISPOSITION EVENT",NA,NA,"2014-02-20","2014-02-20",NA
"CDISCPILOT01","DS","01-717-1201",1,"FINAL LAB VISIT","FINAL LAB VISIT","DISPOSITION EVENT",NA,NA,"2014-02-21","2014-02-21",NA
"CDISCPILOT01","DS","01-708-1316",1,"FINAL LAB VISIT","FINAL LAB VISIT","DISPOSITION EVENT",NA,NA,"2014-03-01","2014-03-01",NA
"CDISCPILOT01","DS","01-710-1270",2,"FINAL LAB VISIT","FINAL LAB VISIT","DISPOSITION EVENT",NA,NA,"2014-03-01","2014-03-01",NA
"CDISCPILOT01","DS","01-708-1286",1,"FINAL LAB VISIT","FINAL LAB VISIT","DISPOSITION EVENT",NA,NA,"2014-03-08","2014-03-08",NA
"CDISCPILOT01","DS","01-717-1344",1,"FINAL LAB VISIT","FINAL LAB VISIT","DISPOSITION EVENT",NA,NA,"2014-03-14","2014-03-14",NA
"CDISCPILOT01","DS","01-705-1281",2,"FINAL LAB VISIT","FINAL LAB VISIT","DISPOSITION EVENT",NA,NA,"2014-03-17","2014-03-17",NA
"CDISCPILOT01","DS","01-709-1001",1,"FINAL LAB VISIT","FINAL LAB VISIT","DISPOSITION EVENT",NA,NA,"2014-03-17","2014-03-17",NA
"CDISCPILOT01","DS","01-717-1446",1,"FINAL LAB VISIT","FINAL LAB VISIT","DISPOSITION EVENT",NA,NA,"2014-03-17","2014-03-17",NA
"CDISCPILOT01","DS","01-701-1345",1,"FINAL LAB VISIT","FINAL LAB VISIT","DISPOSITION EVENT",NA,NA,"2014-03-18","2014-03-18",NA
"CDISCPILOT01","DS","01-703-1379",1,"FINAL LAB VISIT","FINAL LAB VISIT","DISPOSITION EVENT",NA,NA,"2014-03-21","2014-03-21",NA
"CDISCPILOT01","DS","01-708-1158",2,"FINAL LAB VISIT","FINAL LAB VISIT","DISPOSITION EVENT",NA,NA,"2014-03-22","2014-03-22",NA
"CDISCPILOT01","DS","01-710-1078",1,"FINAL LAB VISIT","FINAL LAB VISIT","DISPOSITION EVENT",NA,NA,"2014-03-23","2014-03-23",NA
"CDISCPILOT01","DS","01-701-1415",1,"FINAL LAB VISIT","FINAL LAB VISIT","DISPOSITION EVENT",NA,NA,"2014-03-24","2014-03-24",NA
"CDISCPILOT01","DS","01-713-1043",1,"FINAL LAB VISIT","FINAL LAB VISIT","DISPOSITION EVENT",NA,NA,"2014-03-24","2014-03-24",NA
"CDISCPILOT01","DS","01-701-1387",1,"FINAL LAB VISIT","FINAL LAB VISIT","DISPOSITION EVENT",NA,NA,"2014-03-25","2014-03-25",NA
"CDISCPILOT01","DS","01-704-1074",2,"FINAL LAB VISIT","FINAL LAB VISIT","DISPOSITION EVENT",NA,NA,"2014-03-31","2014-03-31",NA
"CDISCPILOT01","DS","01-704-1127",1,"FINAL LAB VISIT","FINAL LAB VISIT","DISPOSITION EVENT",NA,NA,"2014-03-31","2014-03-31",NA
"CDISCPILOT01","DS","01-701-1153",1,"FINAL LAB VISIT","FINAL LAB VISIT","DISPOSITION EVENT",NA,NA,"2014-04-01","2014-04-01",NA
"CDISCPILOT01","DS","01-716-1157",1,"FINAL LAB VISIT","FINAL LAB VISIT","DISPOSITION EVENT",NA,NA,"2014-04-05","2014-04-05",NA
"CDISCPILOT01","DS","01-708-1178",2,"FINAL LAB VISIT","FINAL LAB VISIT","DISPOSITION EVENT",NA,NA,"2014-04-06","2014-04-06",NA
"CDISCPILOT01","DS","01-705-1303",2,"FINAL LAB VISIT","FINAL LAB VISIT","DISPOSITION EVENT",NA,NA,"2014-04-07","2014-04-07",NA
"CDISCPILOT01","DS","01-701-1033",1,"FINAL LAB VISIT","FINAL LAB VISIT","DISPOSITION EVENT",NA,NA,"2014-04-14","2014-04-14",NA
"CDISCPILOT01","DS","01-704-1351",1,"FINAL LAB VISIT","FINAL LAB VISIT","DISPOSITION EVENT",NA,NA,"2014-04-18","2014-04-18",NA
"CDISCPILOT01","DS","01-715-1321",2,"FINAL LAB VISIT","FINAL LAB VISIT","DISPOSITION EVENT",NA,NA,"2014-04-22","2014-04-22",NA
"CDISCPILOT01","DS","01-710-1368",1,"FINAL LAB VISIT","FINAL LAB VISIT","DISPOSITION EVENT",NA,NA,"2014-04-24","2014-04-24",NA
"CDISCPILOT01","DS","01-709-1099",1,"FINAL LAB VISIT","FINAL LAB VISIT","DISPOSITION EVENT",NA,NA,"2014-04-25","2014-04-25",NA
"CDISCPILOT01","DS","01-701-1442",1,"FINAL LAB VISIT","FINAL LAB VISIT","DISPOSITION EVENT",NA,NA,"2014-04-26","2014-04-26",NA
"CDISCPILOT01","DS","01-707-1206",1,"FINAL LAB VISIT","FINAL LAB VISIT","DISPOSITION EVENT",NA,NA,"2014-04-27","2014-04-27",NA
"CDISCPILOT01","DS","01-710-1154",2,"FINAL LAB VISIT","FINAL LAB VISIT","DISPOSITION EVENT",NA,NA,"2014-05-09","2014-05-09",NA
"CDISCPILOT01","DS","01-709-1081",2,"FINAL LAB VISIT","FINAL LAB VISIT","DISPOSITION EVENT",NA,NA,"2014-05-10","2014-05-10",NA
"CDISCPILOT01","DS","01-705-1031",1,"FINAL LAB VISIT","FINAL LAB VISIT","DISPOSITION EVENT",NA,NA,"2014-05-11","2014-05-11",NA
"CDISCPILOT01","DS","01-705-1292",1,"FINAL LAB VISIT","FINAL LAB VISIT","DISPOSITION EVENT",NA,NA,"2014-05-14","2014-05-14",NA
"CDISCPILOT01","DS","01-704-1135",1,"FINAL LAB VISIT","FINAL LAB VISIT","DISPOSITION EVENT",NA,NA,"2014-05-16","2014-05-16",NA
"CDISCPILOT01","DS","01-710-1183",1,"FINAL LAB VISIT","FINAL LAB VISIT","DISPOSITION EVENT",NA,NA,"2014-05-17","2014-05-17",NA
"CDISCPILOT01","DS","01-713-1448",2,"FINAL LAB VISIT","FINAL LAB VISIT","DISPOSITION EVENT",NA,NA,"2014-05-17","2014-05-17",NA
"CDISCPILOT01","DS","01-710-1077",1,"FINAL LAB VISIT","FINAL LAB VISIT","DISPOSITION EVENT",NA,NA,"2014-05-18","2014-05-18",NA
"CDISCPILOT01","DS","01-703-1295",2,"FINAL LAB VISIT","FINAL LAB VISIT","DISPOSITION EVENT",NA,NA,"2014-05-19","2014-05-19",NA
"CDISCPILOT01","DS","01-703-1335",1,"FINAL LAB VISIT","FINAL LAB VISIT","DISPOSITION EVENT",NA,NA,"2014-05-24","2014-05-24",NA
"CDISCPILOT01","DS","01-701-1275",1,"FINAL LAB VISIT","FINAL LAB VISIT","DISPOSITION EVENT",NA,NA,"2014-06-14","2014-06-14",NA
"CDISCPILOT01","DS","01-714-1288",1,"FINAL LAB VISIT","FINAL LAB VISIT","DISPOSITION EVENT",NA,NA,"2014-06-17","2014-06-17",NA
"CDISCPILOT01","DS","01-716-1447",1,"FINAL LAB VISIT","FINAL LAB VISIT","DISPOSITION EVENT",NA,NA,"2014-06-17","2014-06-17",NA
"CDISCPILOT01","DS","01-709-1306",2,"FINAL LAB VISIT","FINAL LAB VISIT","DISPOSITION EVENT",NA,NA,"2014-06-25","2014-06-25",NA
"CDISCPILOT01","DS","01-710-1249",1,"FINAL LAB VISIT","FINAL LAB VISIT","DISPOSITION EVENT",NA,NA,"2014-06-28","2014-06-28",NA
"CDISCPILOT01","DS","01-701-1015",1,"FINAL LAB VISIT","FINAL LAB VISIT","DISPOSITION EVENT",NA,NA,"2014-07-02","2014-07-02",NA
"CDISCPILOT01","DS","01-708-1406",1,"FINAL LAB VISIT","FINAL LAB VISIT","DISPOSITION EVENT",NA,NA,"2014-07-02","2014-07-02",NA
"CDISCPILOT01","DS","01-701-1097",1,"FINAL LAB VISIT","FINAL LAB VISIT","DISPOSITION EVENT",NA,NA,"2014-07-09","2014-07-09",NA
"CDISCPILOT01","DS","01-704-1010",1,"FINAL LAB VISIT","FINAL LAB VISIT","DISPOSITION EVENT",NA,NA,"2014-07-09","2014-07-09",NA
"CDISCPILOT01","DS","01-701-1239",1,"FINAL LAB VISIT","FINAL LAB VISIT","DISPOSITION EVENT",NA,NA,"2014-07-11","2014-07-11",NA
"CDISCPILOT01","DS","01-717-1004",1,"FINAL LAB VISIT","FINAL LAB VISIT","DISPOSITION EVENT",NA,NA,"2014-07-16","2014-07-16",NA
"CDISCPILOT01","DS","01-716-1441",1,"FINAL LAB VISIT","FINAL LAB VISIT","DISPOSITION EVENT",NA,NA,"2014-07-22","2014-07-22",NA
"CDISCPILOT01","DS","01-705-1280",1,"FINAL LAB VISIT","FINAL LAB VISIT","DISPOSITION EVENT",NA,NA,"2014-07-24","2014-07-24",NA
"CDISCPILOT01","DS","01-701-1287",1,"FINAL LAB VISIT","FINAL LAB VISIT","DISPOSITION EVENT",NA,NA,"2014-07-26","2014-07-26",NA
"CDISCPILOT01","DS","01-713-1269",1,"FINAL LAB VISIT","FINAL LAB VISIT","DISPOSITION EVENT",NA,NA,"2014-07-28","2014-07-28",NA
"CDISCPILOT01","DS","01-717-1109",1,"FINAL LAB VISIT","FINAL LAB VISIT","DISPOSITION EVENT",NA,NA,"2014-07-28","2014-07-28",NA
"CDISCPILOT01","DS","01-706-1041",1,"FINAL LAB VISIT","FINAL LAB VISIT","DISPOSITION EVENT",NA,NA,"2014-07-29","2014-07-29",NA
"CDISCPILOT01","DS","01-704-1325",1,"FINAL LAB VISIT","FINAL LAB VISIT","DISPOSITION EVENT",NA,NA,"2014-08-06","2014-08-06",NA
"CDISCPILOT01","DS","01-701-1130",1,"FINAL LAB VISIT","FINAL LAB VISIT","DISPOSITION EVENT",NA,NA,"2014-08-16","2014-08-16",NA
"CDISCPILOT01","DS","01-710-1027",1,"FINAL LAB VISIT","FINAL LAB VISIT","DISPOSITION EVENT",NA,NA,"2014-08-29","2014-08-29",NA
"CDISCPILOT01","DS","01-701-1118",1,"FINAL LAB VISIT","FINAL LAB VISIT","DISPOSITION EVENT",NA,NA,"2014-09-09","2014-09-09",NA
"CDISCPILOT01","DS","01-703-1439",1,"FINAL LAB VISIT","FINAL LAB VISIT","DISPOSITION EVENT",NA,NA,"2014-09-11","2014-09-11",NA
"CDISCPILOT01","DS","01-716-1103",1,"FINAL LAB VISIT","FINAL LAB VISIT","DISPOSITION EVENT",NA,NA,"2014-09-20","2014-09-20",NA
"CDISCPILOT01","DS","01-716-1311",1,"FINAL LAB VISIT","FINAL LAB VISIT","DISPOSITION EVENT",NA,NA,"2014-09-30","2014-09-30",NA
"CDISCPILOT01","DS","01-704-1445",2,"FINAL LAB VISIT","FINAL LAB VISIT","DISPOSITION EVENT",NA,NA,"2014-10-01","2014-10-01",NA
"CDISCPILOT01","DS","01-713-1073",1,"FINAL LAB VISIT","FINAL LAB VISIT","DISPOSITION EVENT",NA,NA,"2014-10-05","2014-10-05",NA
"CDISCPILOT01","DS","01-709-1088",1,"FINAL LAB VISIT","FINAL LAB VISIT","DISPOSITION EVENT",NA,NA,"2014-10-09","2014-10-09",NA
"CDISCPILOT01","DS","01-714-1035",1,"FINAL LAB VISIT","FINAL LAB VISIT","DISPOSITION EVENT",NA,NA,"2014-10-16","2014-10-16",NA
"CDISCPILOT01","DS","01-716-1026",1,"FINAL LAB VISIT","FINAL LAB VISIT","DISPOSITION EVENT",NA,NA,"2014-10-16","2014-10-16",NA
"CDISCPILOT01","DS","01-709-1312",1,"FINAL LAB VISIT","FINAL LAB VISIT","DISPOSITION EVENT",NA,NA,"2014-10-19","2014-10-19",NA
"CDISCPILOT01","DS","01-701-1317",1,"FINAL LAB VISIT","FINAL LAB VISIT","DISPOSITION EVENT",NA,NA,"2014-11-20","2014-11-20",NA
"CDISCPILOT01","DS","01-701-1034",1,"FINAL LAB VISIT","FINAL LAB VISIT","DISPOSITION EVENT",NA,NA,"2014-12-30","2014-12-30",NA
"CDISCPILOT01","DS","01-716-1177",1,"FINAL LAB VISIT","FINAL LAB VISIT","DISPOSITION EVENT",NA,NA,"2015-03-05","2015-03-05",NA
"CDISCPILOT01","DS","01-701-1023",3,"FINAL RETRIEVAL VISIT","FINAL RETRIEVAL VISIT","DISPOSITION EVENT",NA,NA,"2013-02-18","2013-02-18",NA
"CDISCPILOT01","DS","01-701-1111",3,"FINAL RETRIEVAL VISIT","FINAL RETRIEVAL VISIT","DISPOSITION EVENT",NA,NA,"2013-02-22","2013-02-22",NA
"CDISCPILOT01","DS","01-718-1079",3,"FINAL RETRIEVAL VISIT","FINAL RETRIEVAL VISIT","DISPOSITION EVENT",NA,NA,"2013-03-05","2013-03-05",NA
"CDISCPILOT01","DS","01-703-1086",3,"FINAL RETRIEVAL VISIT","FINAL RETRIEVAL VISIT","DISPOSITION EVENT",NA,NA,"2013-03-26","2013-03-26",NA
"CDISCPILOT01","DS","01-716-1189",3,"FINAL RETRIEVAL VISIT","FINAL RETRIEVAL VISIT","DISPOSITION EVENT",NA,NA,"2013-04-08","2013-04-08",NA
"CDISCPILOT01","DS","01-701-1115",3,"FINAL RETRIEVAL VISIT","FINAL RETRIEVAL VISIT","DISPOSITION EVENT",NA,NA,"2013-05-20","2013-05-20",NA
"CDISCPILOT01","DS","01-718-1427",2,"FINAL RETRIEVAL VISIT","FINAL RETRIEVAL VISIT","DISPOSITION EVENT",NA,NA,"2013-06-03","2013-06-03",NA
"CDISCPILOT01","DS","01-701-1444",3,"FINAL RETRIEVAL VISIT","FINAL RETRIEVAL VISIT","DISPOSITION EVENT",NA,NA,"2013-06-20","2013-06-20",NA
"CDISCPILOT01","DS","01-706-1384",3,"FINAL RETRIEVAL VISIT","FINAL RETRIEVAL VISIT","DISPOSITION EVENT",NA,NA,"2013-06-22","2013-06-22",NA
"CDISCPILOT01","DS","01-716-1094",3,"FINAL RETRIEVAL VISIT","FINAL RETRIEVAL VISIT","DISPOSITION EVENT",NA,NA,"2013-06-22","2013-06-22",NA
"CDISCPILOT01","DS","01-718-1328",2,"FINAL RETRIEVAL VISIT","FINAL RETRIEVAL VISIT","DISPOSITION EVENT",NA,NA,"2013-07-24","2013-07-24",NA
"CDISCPILOT01","DS","01-701-1047",3,"FINAL RETRIEVAL VISIT","FINAL RETRIEVAL VISIT","DISPOSITION EVENT",NA,NA,"2013-07-28","2013-07-28",NA
"CDISCPILOT01","DS","01-701-1188",3,"FINAL RETRIEVAL VISIT","FINAL RETRIEVAL VISIT","DISPOSITION EVENT",NA,NA,"2013-08-04","2013-08-04",NA
"CDISCPILOT01","DS","01-716-1151",3,"FINAL RETRIEVAL VISIT","FINAL RETRIEVAL VISIT","DISPOSITION EVENT",NA,NA,"2013-08-13","2013-08-13",NA
"CDISCPILOT01","DS","01-715-1107",3,"FINAL RETRIEVAL VISIT","FINAL RETRIEVAL VISIT","DISPOSITION EVENT",NA,NA,"2013-08-14","2013-08-14",NA
"CDISCPILOT01","DS","01-703-1119",3,"FINAL RETRIEVAL VISIT","FINAL RETRIEVAL VISIT","DISPOSITION EVENT",NA,NA,"2013-08-24","2013-08-24",NA
"CDISCPILOT01","DS","01-711-1012",3,"FINAL RETRIEVAL VISIT","FINAL RETRIEVAL VISIT","DISPOSITION EVENT",NA,NA,"2013-09-18","2013-09-18",NA
"CDISCPILOT01","DS","01-711-1143",3,"FINAL RETRIEVAL VISIT","FINAL RETRIEVAL VISIT","DISPOSITION EVENT",NA,NA,"2013-09-22","2013-09-22",NA
"CDISCPILOT01","DS","01-716-1298",3,"FINAL RETRIEVAL VISIT","FINAL RETRIEVAL VISIT","DISPOSITION EVENT",NA,NA,"2013-10-07","2013-10-07",NA
"CDISCPILOT01","DS","01-701-1294",3,"FINAL RETRIEVAL VISIT","FINAL RETRIEVAL VISIT","DISPOSITION EVENT",NA,NA,"2013-10-08","2013-10-08",NA
"CDISCPILOT01","DS","01-716-1063",3,"FINAL RETRIEVAL VISIT","FINAL RETRIEVAL VISIT","DISPOSITION EVENT",NA,NA,"2013-11-17","2013-11-17",NA
"CDISCPILOT01","DS","01-706-1049",3,"FINAL RETRIEVAL VISIT","FINAL RETRIEVAL VISIT","DISPOSITION EVENT",NA,NA,"2013-11-26","2013-11-26",NA
"CDISCPILOT01","DS","01-716-1071",3,"FINAL RETRIEVAL VISIT","FINAL RETRIEVAL VISIT","DISPOSITION EVENT",NA,NA,"2013-12-16","2013-12-16",NA
"CDISCPILOT01","DS","01-704-1093",3,"FINAL RETRIEVAL VISIT","FINAL RETRIEVAL VISIT","DISPOSITION EVENT",NA,NA,"2013-12-25","2013-12-25",NA
"CDISCPILOT01","DS","01-715-1405",3,"FINAL RETRIEVAL VISIT","FINAL RETRIEVAL VISIT","DISPOSITION EVENT",NA,NA,"2014-01-11","2014-01-11",NA
"CDISCPILOT01","DS","01-705-1059",3,"FINAL RETRIEVAL VISIT","FINAL RETRIEVAL VISIT","DISPOSITION EVENT",NA,NA,"2014-02-06","2014-02-06",NA
"CDISCPILOT01","DS","01-701-1360",2,"FINAL RETRIEVAL VISIT","FINAL RETRIEVAL VISIT","DISPOSITION EVENT",NA,NA,"2014-02-11","2014-02-11",NA
"CDISCPILOT01","DS","01-701-1302",3,"FINAL RETRIEVAL VISIT","FINAL RETRIEVAL VISIT","DISPOSITION EVENT",NA,NA,"2014-02-13","2014-02-13",NA
"CDISCPILOT01","DS","01-718-1250",3,"FINAL RETRIEVAL VISIT","FINAL RETRIEVAL VISIT","DISPOSITION EVENT",NA,NA,"2014-03-08","2014-03-08",NA
"CDISCPILOT01","DS","01-718-1170",3,"FINAL RETRIEVAL VISIT","FINAL RETRIEVAL VISIT","DISPOSITION EVENT",NA,NA,"2014-03-15","2014-03-15",NA
"CDISCPILOT01","DS","01-718-1172",2,"FINAL RETRIEVAL VISIT","FINAL RETRIEVAL VISIT","DISPOSITION EVENT",NA,NA,"2014-03-21","2014-03-21",NA
"CDISCPILOT01","DS","01-701-1181",3,"FINAL RETRIEVAL VISIT","FINAL RETRIEVAL VISIT","DISPOSITION EVENT",NA,NA,"2014-05-23","2014-05-23",NA
"CDISCPILOT01","DS","01-713-1448",3,"FINAL RETRIEVAL VISIT","FINAL RETRIEVAL VISIT","DISPOSITION EVENT",NA,NA,"2014-07-27","2014-07-27",NA
"CDISCPILOT01","DS","01-701-1387",2,"FINAL RETRIEVAL VISIT","FINAL RETRIEVAL VISIT","DISPOSITION EVENT",NA,NA,"2014-08-27","2014-08-27",NA
"CDISCPILOT01","DS","01-701-1033",2,"FINAL RETRIEVAL VISIT","FINAL RETRIEVAL VISIT","DISPOSITION EVENT",NA,NA,"2014-09-15","2014-09-15",NA
"CDISCPILOT01","DS","01-716-1311",2,"FINAL RETRIEVAL VISIT","FINAL RETRIEVAL VISIT","DISPOSITION EVENT",NA,NA,"2014-11-15","2014-11-15",NA
"CDISCPILOT01","DS","01-705-1186",2,"HYPERBILIRUBINEMIA","PHYSICIAN DECISION","DISPOSITION EVENT",NA,NA,"2014-02-07","2014-02-07",NA
"CDISCPILOT01","DS","01-716-1311",3,"INSTITUTIONALIZED","WITHDRAWAL BY SUBJECT","DISPOSITION EVENT",NA,NA,"2014-09-30","2014-09-30",NA
"CDISCPILOT01","DS","01-718-1427",3,"LACK OF EFFICACY, PATIENT CAREGIVER PERCEPTION","LACK OF EFFICACY","DISPOSITION EVENT",NA,NA,"2013-02-18","2013-02-18",NA
"CDISCPILOT01","DS","01-709-1259",2,"LACK OF EFFICACY, PATIENT CAREGIVER PERCEPTION","LACK OF EFFICACY","DISPOSITION EVENT",NA,NA,"2013-06-13","2013-06-13",NA
"CDISCPILOT01","DS","01-717-1201",2,"LACK OF EFFICACY, PATIENT CAREGIVER PERCEPTION","LACK OF EFFICACY","DISPOSITION EVENT",NA,NA,"2014-02-21","2014-02-21",NA
"CDISCPILOT01","DS","01-717-1344",2,"LACK OF EFFICACY, PATIENT CAREGIVER PERCEPTION","LACK OF EFFICACY","DISPOSITION EVENT",NA,NA,"2014-03-14","2014-03-14",NA
"CDISCPILOT01","DS","01-704-1114",2,"LEAVING AREA FOR 5 MONTHS","WITHDRAWAL BY SUBJECT","DISPOSITION EVENT",NA,NA,"2013-07-08","2013-07-08",NA
"CDISCPILOT01","DS","01-708-1272",2,"PATCH DISCOMFORT","WITHDRAWAL BY SUBJECT","DISPOSITION EVENT",NA,NA,"2013-04-04","2013-04-04",NA
"CDISCPILOT01","DS","01-704-1010",2,"PATIENT IS MOVING","WITHDRAWAL BY SUBJECT","DISPOSITION EVENT",NA,NA,"2014-07-09","2014-07-09",NA
"CDISCPILOT01","DS","01-710-1314",2,"PATIENT REFUSES TO CONTINUE","WITHDRAWAL BY SUBJECT","DISPOSITION EVENT",NA,NA,"2013-05-25","2013-05-25",NA
"CDISCPILOT01","DS","01-718-1172",3,"PATIENT TO BEGIN COURSE OF ARICEPT","WITHDRAWAL BY SUBJECT","DISPOSITION EVENT",NA,NA,"2013-11-29","2013-11-29",NA
"CDISCPILOT01","DS","01-718-1328",3,"PATIENT UNABLE TO TOLERATE DERMAL IRRITATION AT PATCH SITE","WITHDRAWAL BY SUBJECT","DISPOSITION EVENT",NA,NA,"2013-05-01","2013-05-01",NA
"CDISCPILOT01","DS","01-705-1018",2,"PATIENT WITHDREW CONSENT","WITHDRAWAL BY SUBJECT","DISPOSITION EVENT",NA,NA,"2013-07-12","2013-07-12",NA
"CDISCPILOT01","DS","01-708-1236",2,"PATIENT WITHDREW CONSENT","WITHDRAWAL BY SUBJECT","DISPOSITION EVENT",NA,NA,"2013-09-26","2013-09-26",NA
"CDISCPILOT01","DS","01-705-1377",2,"PATIENT WITHDREW CONSENT","WITHDRAWAL BY SUBJECT","DISPOSITION EVENT",NA,NA,"2014-03-07","2014-03-07",NA
"CDISCPILOT01","DS","01-716-1308",2,"PLACED IN NURSING HOME","WITHDRAWAL BY SUBJECT","DISPOSITION EVENT",NA,NA,"2013-10-07","2013-10-07",NA
"CDISCPILOT01","DS","01-701-1360",3,"PMD DECISION DUE TO AE'S","PHYSICIAN DECISION","DISPOSITION EVENT",NA,NA,"2013-08-14","2013-08-14",NA
"CDISCPILOT01","DS","01-701-1192",2,"PROTOCOL COMPLETED","COMPLETED","DISPOSITION EVENT",NA,NA,"2013-01-20","2013-01-20",NA
"CDISCPILOT01","DS","01-716-1024",2,"PROTOCOL COMPLETED","COMPLETED","DISPOSITION EVENT",NA,NA,"2013-01-20","2013-01-20",NA
"CDISCPILOT01","DS","01-711-1036",2,"PROTOCOL COMPLETED","COMPLETED","DISPOSITION EVENT",NA,NA,"2013-02-10","2013-02-10",NA
"CDISCPILOT01","DS","01-703-1299",2,"PROTOCOL COMPLETED","COMPLETED","DISPOSITION EVENT",NA,NA,"2013-03-13","2013-03-13",NA
"CDISCPILOT01","DS","01-713-1256",2,"PROTOCOL COMPLETED","COMPLETED","DISPOSITION EVENT",NA,NA,"2013-03-25","2013-03-25",NA
"CDISCPILOT01","DS","01-710-1235",2,"PROTOCOL COMPLETED","COMPLETED","DISPOSITION EVENT",NA,NA,"2013-03-27","2013-03-27",NA
"CDISCPILOT01","DS","01-701-1324",2,"PROTOCOL COMPLETED","COMPLETED","DISPOSITION EVENT",NA,NA,"2013-04-02","2013-04-02",NA
"CDISCPILOT01","DS","01-704-1164",2,"PROTOCOL COMPLETED","COMPLETED","DISPOSITION EVENT",NA,NA,"2013-04-04","2013-04-04",NA
"CDISCPILOT01","DS","01-716-1167",2,"PROTOCOL COMPLETED","COMPLETED","DISPOSITION EVENT",NA,NA,"2013-04-13","2013-04-13",NA
"CDISCPILOT01","DS","01-701-1392",2,"PROTOCOL COMPLETED","COMPLETED","DISPOSITION EVENT",NA,NA,"2013-04-28","2013-04-28",NA
"CDISCPILOT01","DS","01-708-1087",2,"PROTOCOL COMPLETED","COMPLETED","DISPOSITION EVENT",NA,NA,"2013-04-28","2013-04-28",NA
"CDISCPILOT01","DS","01-701-1133",2,"PROTOCOL COMPLETED","COMPLETED","DISPOSITION EVENT",NA,NA,"2013-04-29","2013-04-29",NA
"CDISCPILOT01","DS","01-710-1354",2,"PROTOCOL COMPLETED","COMPLETED","DISPOSITION EVENT",NA,NA,"2013-05-01","2013-05-01",NA
"CDISCPILOT01","DS","01-713-1106",2,"PROTOCOL COMPLETED","COMPLETED","DISPOSITION EVENT",NA,NA,"2013-05-06","2013-05-06",NA
"CDISCPILOT01","DS","01-710-1187",2,"PROTOCOL COMPLETED","COMPLETED","DISPOSITION EVENT",NA,NA,"2013-05-12","2013-05-12",NA
"CDISCPILOT01","DS","01-704-1218",2,"PROTOCOL COMPLETED","COMPLETED","DISPOSITION EVENT",NA,NA,"2013-05-27","2013-05-27",NA
"CDISCPILOT01","DS","01-709-1020",2,"PROTOCOL COMPLETED","COMPLETED","DISPOSITION EVENT",NA,NA,"2013-06-01","2013-06-01",NA
"CDISCPILOT01","DS","01-715-1207",2,"PROTOCOL COMPLETED","COMPLETED","DISPOSITION EVENT",NA,NA,"2013-06-01","2013-06-01",NA
"CDISCPILOT01","DS","01-708-1171",2,"PROTOCOL COMPLETED","COMPLETED","DISPOSITION EVENT",NA,NA,"2013-06-04","2013-06-04",NA
"CDISCPILOT01","DS","01-708-1336",2,"PROTOCOL COMPLETED","COMPLETED","DISPOSITION EVENT",NA,NA,"2013-06-05","2013-06-05",NA
"CDISCPILOT01","DS","01-704-1388",2,"PROTOCOL COMPLETED","COMPLETED","DISPOSITION EVENT",NA,NA,"2013-06-19","2013-06-19",NA
"CDISCPILOT01","DS","01-705-1282",2,"PROTOCOL COMPLETED","COMPLETED","DISPOSITION EVENT",NA,NA,"2013-06-24","2013-06-24",NA
"CDISCPILOT01","DS","01-709-1339",2,"PROTOCOL COMPLETED","COMPLETED","DISPOSITION EVENT",NA,NA,"2013-06-24","2013-06-24",NA
"CDISCPILOT01","DS","01-709-1029",2,"PROTOCOL COMPLETED","COMPLETED","DISPOSITION EVENT",NA,NA,"2013-06-26","2013-06-26",NA
"CDISCPILOT01","DS","01-708-1342",2,"PROTOCOL COMPLETED","COMPLETED","DISPOSITION EVENT",NA,NA,"2013-06-28","2013-06-28",NA
"CDISCPILOT01","DS","01-710-1060",2,"PROTOCOL COMPLETED","COMPLETED","DISPOSITION EVENT",NA,NA,"2013-07-05","2013-07-05",NA
"CDISCPILOT01","DS","01-710-1408",2,"PROTOCOL COMPLETED","COMPLETED","DISPOSITION EVENT",NA,NA,"2013-07-12","2013-07-12",NA
"CDISCPILOT01","DS","01-717-1174",2,"PROTOCOL COMPLETED","COMPLETED","DISPOSITION EVENT",NA,NA,"2013-07-24","2013-07-24",NA
"CDISCPILOT01","DS","01-718-1150",2,"PROTOCOL COMPLETED","COMPLETED","DISPOSITION EVENT",NA,NA,"2013-07-31","2013-07-31",NA
"CDISCPILOT01","DS","01-701-1203",2,"PROTOCOL COMPLETED","COMPLETED","DISPOSITION EVENT",NA,NA,"2013-08-03","2013-08-03",NA
"CDISCPILOT01","DS","01-701-1383",2,"PROTOCOL COMPLETED","COMPLETED","DISPOSITION EVENT",NA,NA,"2013-08-06","2013-08-06",NA
"CDISCPILOT01","DS","01-710-1006",2,"PROTOCOL COMPLETED","COMPLETED","DISPOSITION EVENT",NA,NA,"2013-08-10","2013-08-10",NA
"CDISCPILOT01","DS","01-716-1108",2,"PROTOCOL COMPLETED","COMPLETED","DISPOSITION EVENT",NA,NA,"2013-08-10","2013-08-10",NA
"CDISCPILOT01","DS","01-715-1085",2,"PROTOCOL COMPLETED","COMPLETED","DISPOSITION EVENT",NA,NA,"2013-08-18","2013-08-18",NA
"CDISCPILOT01","DS","01-718-1355",2,"PROTOCOL COMPLETED","COMPLETED","DISPOSITION EVENT",NA,NA,"2013-08-29","2013-08-29",NA
"CDISCPILOT01","DS","01-703-1042",2,"PROTOCOL COMPLETED","COMPLETED","DISPOSITION EVENT",NA,NA,"2013-08-31","2013-08-31",NA
"CDISCPILOT01","DS","01-703-1210",2,"PROTOCOL COMPLETED","COMPLETED","DISPOSITION EVENT",NA,NA,"2013-09-06","2013-09-06",NA
"CDISCPILOT01","DS","01-714-1375",2,"PROTOCOL COMPLETED","COMPLETED","DISPOSITION EVENT",NA,NA,"2013-09-07","2013-09-07",NA
"CDISCPILOT01","DS","01-705-1349",2,"PROTOCOL COMPLETED","COMPLETED","DISPOSITION EVENT",NA,NA,"2013-09-08","2013-09-08",NA
"CDISCPILOT01","DS","01-703-1100",2,"PROTOCOL COMPLETED","COMPLETED","DISPOSITION EVENT",NA,NA,"2013-09-14","2013-09-14",NA
"CDISCPILOT01","DS","01-701-1234",2,"PROTOCOL COMPLETED","COMPLETED","DISPOSITION EVENT",NA,NA,"2013-09-22","2013-09-22",NA
"CDISCPILOT01","DS","01-709-1326",2,"PROTOCOL COMPLETED","COMPLETED","DISPOSITION EVENT",NA,NA,"2013-10-02","2013-10-02",NA
"CDISCPILOT01","DS","01-715-1397",2,"PROTOCOL COMPLETED","COMPLETED","DISPOSITION EVENT",NA,NA,"2013-10-03","2013-10-03",NA
"CDISCPILOT01","DS","01-716-1160",2,"PROTOCOL COMPLETED","COMPLETED","DISPOSITION EVENT",NA,NA,"2013-10-11","2013-10-11",NA
"CDISCPILOT01","DS","01-714-1195",2,"PROTOCOL COMPLETED","COMPLETED","DISPOSITION EVENT",NA,NA,"2013-10-23","2013-10-23",NA
"CDISCPILOT01","DS","01-716-1044",2,"PROTOCOL COMPLETED","COMPLETED","DISPOSITION EVENT",NA,NA,"2013-11-03","2013-11-03",NA
"CDISCPILOT01","DS","01-708-1253",2,"PROTOCOL COMPLETED","COMPLETED","DISPOSITION EVENT",NA,NA,"2013-11-05","2013-11-05",NA
"CDISCPILOT01","DS","01-708-1084",2,"PROTOCOL COMPLETED","COMPLETED","DISPOSITION EVENT",NA,NA,"2013-11-11","2013-11-11",NA
"CDISCPILOT01","DS","01-718-1139",2,"PROTOCOL COMPLETED","COMPLETED","DISPOSITION EVENT",NA,NA,"2013-11-17","2013-11-17",NA
"CDISCPILOT01","DS","01-716-1418",2,"PROTOCOL COMPLETED","COMPLETED","DISPOSITION EVENT",NA,NA,"2013-11-20","2013-11-20",NA
"CDISCPILOT01","DS","01-713-1209",2,"PROTOCOL COMPLETED","COMPLETED","DISPOSITION EVENT",NA,NA,"2013-11-22","2013-11-22",NA
"CDISCPILOT01","DS","01-701-1363",2,"PROTOCOL COMPLETED","COMPLETED","DISPOSITION EVENT",NA,NA,"2013-11-27","2013-11-27",NA
"CDISCPILOT01","DS","01-708-1296",2,"PROTOCOL COMPLETED","COMPLETED","DISPOSITION EVENT",NA,NA,"2013-12-12","2013-12-12",NA
"CDISCPILOT01","DS","01-705-1431",2,"PROTOCOL COMPLETED","COMPLETED","DISPOSITION EVENT",NA,NA,"2013-12-19","2013-12-19",NA
"CDISCPILOT01","DS","01-709-1309",2,"PROTOCOL COMPLETED","COMPLETED","DISPOSITION EVENT",NA,NA,"2013-12-19","2013-12-19",NA
"CDISCPILOT01","DS","01-716-1364",2,"PROTOCOL COMPLETED","COMPLETED","DISPOSITION EVENT",NA,NA,"2014-01-09","2014-01-09",NA
"CDISCPILOT01","DS","01-718-1254",2,"PROTOCOL COMPLETED","COMPLETED","DISPOSITION EVENT",NA,NA,"2014-01-09","2014-01-09",NA
"CDISCPILOT01","DS","01-701-1028",2,"PROTOCOL COMPLETED","COMPLETED","DISPOSITION EVENT",NA,NA,"2014-01-14","2014-01-14",NA
"CDISCPILOT01","DS","01-709-1301",2,"PROTOCOL COMPLETED","COMPLETED","DISPOSITION EVENT",NA,NA,"2014-01-17","2014-01-17",NA
"CDISCPILOT01","DS","01-701-1440",2,"PROTOCOL COMPLETED","COMPLETED","DISPOSITION EVENT",NA,NA,"2014-02-05","2014-02-05",NA
"CDISCPILOT01","DS","01-713-1179",2,"PROTOCOL COMPLETED","COMPLETED","DISPOSITION EVENT",NA,NA,"2014-02-05","2014-02-05",NA
"CDISCPILOT01","DS","01-708-1348",2,"PROTOCOL COMPLETED","COMPLETED","DISPOSITION EVENT",NA,NA,"2014-02-13","2014-02-13",NA
"CDISCPILOT01","DS","01-701-1148",2,"PROTOCOL COMPLETED","COMPLETED","DISPOSITION EVENT",NA,NA,"2014-02-20","2014-02-20",NA
"CDISCPILOT01","DS","01-708-1316",2,"PROTOCOL COMPLETED","COMPLETED","DISPOSITION EVENT",NA,NA,"2014-03-01","2014-03-01",NA
"CDISCPILOT01","DS","01-717-1446",2,"PROTOCOL COMPLETED","COMPLETED","DISPOSITION EVENT",NA,NA,"2014-03-04","2014-03-04",NA
"CDISCPILOT01","DS","01-708-1286",2,"PROTOCOL COMPLETED","COMPLETED","DISPOSITION EVENT",NA,NA,"2014-03-08","2014-03-08",NA
"CDISCPILOT01","DS","01-703-1379",2,"PROTOCOL COMPLETED","COMPLETED","DISPOSITION EVENT",NA,NA,"2014-03-21","2014-03-21",NA
"CDISCPILOT01","DS","01-710-1078",2,"PROTOCOL COMPLETED","COMPLETED","DISPOSITION EVENT",NA,NA,"2014-03-23","2014-03-23",NA
"CDISCPILOT01","DS","01-701-1415",2,"PROTOCOL COMPLETED","COMPLETED","DISPOSITION EVENT",NA,NA,"2014-03-24","2014-03-24",NA
"CDISCPILOT01","DS","01-713-1043",2,"PROTOCOL COMPLETED","COMPLETED","DISPOSITION EVENT",NA,NA,"2014-03-24","2014-03-24",NA
"CDISCPILOT01","DS","01-704-1127",2,"PROTOCOL COMPLETED","COMPLETED","DISPOSITION EVENT",NA,NA,"2014-03-31","2014-03-31",NA
"CDISCPILOT01","DS","01-701-1153",2,"PROTOCOL COMPLETED","COMPLETED","DISPOSITION EVENT",NA,NA,"2014-04-01","2014-04-01",NA
"CDISCPILOT01","DS","01-716-1157",2,"PROTOCOL COMPLETED","COMPLETED","DISPOSITION EVENT",NA,NA,"2014-04-05","2014-04-05",NA
"CDISCPILOT01","DS","01-709-1001",2,"PROTOCOL COMPLETED","COMPLETED","DISPOSITION EVENT",NA,NA,"2014-04-08","2014-04-08",NA
"CDISCPILOT01","DS","01-704-1351",2,"PROTOCOL COMPLETED","COMPLETED","DISPOSITION EVENT",NA,NA,"2014-04-18","2014-04-18",NA
"CDISCPILOT01","DS","01-710-1368",2,"PROTOCOL COMPLETED","COMPLETED","DISPOSITION EVENT",NA,NA,"2014-04-24","2014-04-24",NA
"CDISCPILOT01","DS","01-709-1099",2,"PROTOCOL COMPLETED","COMPLETED","DISPOSITION EVENT",NA,NA,"2014-04-25","2014-04-25",NA
"CDISCPILOT01","DS","01-701-1442",2,"PROTOCOL COMPLETED","COMPLETED","DISPOSITION EVENT",NA,NA,"2014-04-26","2014-04-26",NA
"CDISCPILOT01","DS","01-707-1206",2,"PROTOCOL COMPLETED","COMPLETED","DISPOSITION EVENT",NA,NA,"2014-04-27","2014-04-27",NA
"CDISCPILOT01","DS","01-705-1292",2,"PROTOCOL COMPLETED","COMPLETED","DISPOSITION EVENT",NA,NA,"2014-05-14","2014-05-14",NA
"CDISCPILOT01","DS","01-704-1135",2,"PROTOCOL COMPLETED","COMPLETED","DISPOSITION EVENT",NA,NA,"2014-05-16","2014-05-16",NA
"CDISCPILOT01","DS","01-710-1183",2,"PROTOCOL COMPLETED","COMPLETED","DISPOSITION EVENT",NA,NA,"2014-05-17","2014-05-17",NA
"CDISCPILOT01","DS","01-710-1077",2,"PROTOCOL COMPLETED","COMPLETED","DISPOSITION EVENT",NA,NA,"2014-05-18","2014-05-18",NA
"CDISCPILOT01","DS","01-714-1288",2,"PROTOCOL COMPLETED","COMPLETED","DISPOSITION EVENT",NA,NA,"2014-06-17","2014-06-17",NA
"CDISCPILOT01","DS","01-716-1447",2,"PROTOCOL COMPLETED","COMPLETED","DISPOSITION EVENT",NA,NA,"2014-06-17","2014-06-17",NA
"CDISCPILOT01","DS","01-710-1249",2,"PROTOCOL COMPLETED","COMPLETED","DISPOSITION EVENT",NA,NA,"2014-06-28","2014-06-28",NA
"CDISCPILOT01","DS","01-701-1015",2,"PROTOCOL COMPLETED","COMPLETED","DISPOSITION EVENT",NA,NA,"2014-07-02","2014-07-02",NA
"CDISCPILOT01","DS","01-708-1406",2,"PROTOCOL COMPLETED","COMPLETED","DISPOSITION EVENT",NA,NA,"2014-07-02","2014-07-02",NA
"CDISCPILOT01","DS","01-701-1097",2,"PROTOCOL COMPLETED","COMPLETED","DISPOSITION EVENT",NA,NA,"2014-07-09","2014-07-09",NA
"CDISCPILOT01","DS","01-701-1239",2,"PROTOCOL COMPLETED","COMPLETED","DISPOSITION EVENT",NA,NA,"2014-07-11","2014-07-11",NA
"CDISCPILOT01","DS","01-717-1004",2,"PROTOCOL COMPLETED","COMPLETED","DISPOSITION EVENT",NA,NA,"2014-07-16","2014-07-16",NA
"CDISCPILOT01","DS","01-716-1441",2,"PROTOCOL COMPLETED","COMPLETED","DISPOSITION EVENT",NA,NA,"2014-07-22","2014-07-22",NA
"CDISCPILOT01","DS","01-705-1280",2,"PROTOCOL COMPLETED","COMPLETED","DISPOSITION EVENT",NA,NA,"2014-07-25","2014-07-25",NA
"CDISCPILOT01","DS","01-701-1287",2,"PROTOCOL COMPLETED","COMPLETED","DISPOSITION EVENT",NA,NA,"2014-07-26","2014-07-26",NA
"CDISCPILOT01","DS","01-713-1269",2,"PROTOCOL COMPLETED","COMPLETED","DISPOSITION EVENT",NA,NA,"2014-07-28","2014-07-28",NA
"CDISCPILOT01","DS","01-717-1109",2,"PROTOCOL COMPLETED","COMPLETED","DISPOSITION EVENT",NA,NA,"2014-07-28","2014-07-28",NA
"CDISCPILOT01","DS","01-706-1041",2,"PROTOCOL COMPLETED","COMPLETED","DISPOSITION EVENT",NA,NA,"2014-07-29","2014-07-29",NA
"CDISCPILOT01","DS","01-701-1130",2,"PROTOCOL COMPLETED","COMPLETED","DISPOSITION EVENT",NA,NA,"2014-08-16","2014-08-16",NA
"CDISCPILOT01","DS","01-710-1027",2,"PROTOCOL COMPLETED","COMPLETED","DISPOSITION EVENT",NA,NA,"2014-08-29","2014-08-29",NA
"CDISCPILOT01","DS","01-701-1118",2,"PROTOCOL COMPLETED","COMPLETED","DISPOSITION EVENT",NA,NA,"2014-09-09","2014-09-09",NA
"CDISCPILOT01","DS","01-703-1439",2,"PROTOCOL COMPLETED","COMPLETED","DISPOSITION EVENT",NA,NA,"2014-09-11","2014-09-11",NA
"CDISCPILOT01","DS","01-716-1103",2,"PROTOCOL COMPLETED","COMPLETED","DISPOSITION EVENT",NA,NA,"2014-09-20","2014-09-20",NA
"CDISCPILOT01","DS","01-713-1073",2,"PROTOCOL COMPLETED","COMPLETED","DISPOSITION EVENT",NA,NA,"2014-10-05","2014-10-05",NA
"CDISCPILOT01","DS","01-709-1088",2,"PROTOCOL COMPLETED","COMPLETED","DISPOSITION EVENT",NA,NA,"2014-10-09","2014-10-09",NA
"CDISCPILOT01","DS","01-714-1035",2,"PROTOCOL COMPLETED","COMPLETED","DISPOSITION EVENT",NA,NA,"2014-10-16","2014-10-16",NA
"CDISCPILOT01","DS","01-716-1026",2,"PROTOCOL COMPLETED","COMPLETED","DISPOSITION EVENT",NA,NA,"2014-10-16","2014-10-16",NA
"CDISCPILOT01","DS","01-709-1312",2,"PROTOCOL COMPLETED","COMPLETED","DISPOSITION EVENT",NA,NA,"2014-10-19","2014-10-19",NA
"CDISCPILOT01","DS","01-701-1317",2,"PROTOCOL COMPLETED","COMPLETED","DISPOSITION EVENT",NA,NA,"2014-11-20","2014-11-20",NA
"CDISCPILOT01","DS","01-701-1034",2,"PROTOCOL COMPLETED","COMPLETED","DISPOSITION EVENT",NA,NA,"2014-12-30","2014-12-30",NA
"CDISCPILOT01","DS","01-716-1177",2,"PROTOCOL COMPLETED","COMPLETED","DISPOSITION EVENT",NA,NA,"2015-03-05","2015-03-05",NA
"CDISCPILOT01","DS","01-708-1372",2,"PROTOCOL ENTRY CRITERIA NOT MET","PROTOCOL VIOLATION","DISPOSITION EVENT",NA,NA,"2013-05-10","2013-05-10",NA
"CDISCPILOT01","DS","01-705-1382",2,"PROTOCOL ENTRY CRITERIA NOT MET","PROTOCOL VIOLATION","DISPOSITION EVENT",NA,NA,"2013-05-13","2013-05-13",NA
"CDISCPILOT01","DS","01-703-1175",2,"PROTOCOL ENTRY CRITERIA NOT MET","PROTOCOL VIOLATION","DISPOSITION EVENT",NA,NA,"2013-12-31","2013-12-31",NA
"CDISCPILOT01","DS","01-701-1387",3,"PROTOCOL VIOLATION","PROTOCOL VIOLATION","DISPOSITION EVENT",NA,NA,"2014-03-25","2014-03-25",NA
"CDISCPILOT01","DS","01-703-1335",2,"PROTOCOL VIOLATION","PROTOCOL VIOLATION","DISPOSITION EVENT",NA,NA,"2014-05-24","2014-05-24",NA
"CDISCPILOT01","DS","01-704-1325",2,"PROTOCOL VIOLATION","PROTOCOL VIOLATION","DISPOSITION EVENT",NA,NA,"2014-08-06","2014-08-06",NA
"CDISCPILOT01","DS","01-702-1082",2,"PT FINDS PATCHES""INCONVENIENT & ITCHY;PT PREFERS'PILLS'""","WITHDRAWAL BY SUBJECT","DISPOSITION EVENT",NA,NA,"2013-11-17","2013-11-17",NA
"CDISCPILOT01","DS","01-716-1030",2,"PT KEPT REMOVING PATCHES","WITHDRAWAL BY SUBJECT","DISPOSITION EVENT",NA,NA,"2014-01-10","2014-01-10",NA
"CDISCPILOT01","DS","01-716-1024",3,"RANDOMIZED","RANDOMIZED","DISPOSITION EVENT",NA,NA,"2012-07-09","2012-07-09",NA
"CDISCPILOT01","DS","01-703-1258",3,"RANDOMIZED","RANDOMIZED","DISPOSITION EVENT",NA,NA,"2012-07-20","2012-07-20",NA
"CDISCPILOT01","DS","01-701-1192",3,"RANDOMIZED","RANDOMIZED","DISPOSITION EVENT",NA,NA,"2012-07-22","2012-07-22",NA
"CDISCPILOT01","DS","01-711-1036",3,"RANDOMIZED","RANDOMIZED","DISPOSITION EVENT",NA,NA,"2012-07-29","2012-07-29",NA
"CDISCPILOT01","DS","01-709-1007",3,"RANDOMIZED","RANDOMIZED","DISPOSITION EVENT",NA,NA,"2012-07-31","2012-07-31",NA
"CDISCPILOT01","DS","01-701-1023",4,"RANDOMIZED","RANDOMIZED","DISPOSITION EVENT",NA,NA,"2012-08-05","2012-08-05",NA
"CDISCPILOT01","DS","01-704-1260",2,"RANDOMIZED","RANDOMIZED","DISPOSITION EVENT",NA,NA,"2012-08-30","2012-08-30",NA
"CDISCPILOT01","DS","01-703-1086",4,"RANDOMIZED","RANDOMIZED","DISPOSITION EVENT",NA,NA,"2012-09-02","2012-09-02",NA
"CDISCPILOT01","DS","01-701-1111",4,"RANDOMIZED","RANDOMIZED","DISPOSITION EVENT",NA,NA,"2012-09-07","2012-09-07",NA
"CDISCPILOT01","DS","01-705-1393",3,"RANDOMIZED","RANDOMIZED","DISPOSITION EVENT",NA,NA,"2012-09-07","2012-09-07",NA
"CDISCPILOT01","DS","01-710-1070",3,"RANDOMIZED","RANDOMIZED","DISPOSITION EVENT",NA,NA,"2012-09-08","2012-09-08",NA
"CDISCPILOT01","DS","01-703-1299",3,"RANDOMIZED","RANDOMIZED","DISPOSITION EVENT",NA,NA,"2012-09-12","2012-09-12",NA
"CDISCPILOT01","DS","01-706-1384",4,"RANDOMIZED","RANDOMIZED","DISPOSITION EVENT",NA,NA,"2012-09-15","2012-09-15",NA
"CDISCPILOT01","DS","01-710-1358",3,"RANDOMIZED","RANDOMIZED","DISPOSITION EVENT",NA,NA,"2012-09-17","2012-09-17",NA
"CDISCPILOT01","DS","01-704-1164",3,"RANDOMIZED","RANDOMIZED","DISPOSITION EVENT",NA,NA,"2012-09-19","2012-09-19",NA
"CDISCPILOT01","DS","01-713-1256",3,"RANDOMIZED","RANDOMIZED","DISPOSITION EVENT",NA,NA,"2012-09-19","2012-09-19",NA
"CDISCPILOT01","DS","01-718-1079",4,"RANDOMIZED","RANDOMIZED","DISPOSITION EVENT",NA,NA,"2012-09-19","2012-09-19",NA
"CDISCPILOT01","DS","01-710-1235",3,"RANDOMIZED","RANDOMIZED","DISPOSITION EVENT",NA,NA,"2012-09-26","2012-09-26",NA
"CDISCPILOT01","DS","01-710-1271",3,"RANDOMIZED","RANDOMIZED","DISPOSITION EVENT",NA,NA,"2012-09-27","2012-09-27",NA
"CDISCPILOT01","DS","01-701-1324",3,"RANDOMIZED","RANDOMIZED","DISPOSITION EVENT",NA,NA,"2012-10-02","2012-10-02",NA
"CDISCPILOT01","DS","01-710-1142",3,"RANDOMIZED","RANDOMIZED","DISPOSITION EVENT",NA,NA,"2012-10-02","2012-10-02",NA
"CDISCPILOT01","DS","01-716-1167",3,"RANDOMIZED","RANDOMIZED","DISPOSITION EVENT",NA,NA,"2012-10-08","2012-10-08",NA
"CDISCPILOT01","DS","01-716-1189",4,"RANDOMIZED","RANDOMIZED","DISPOSITION EVENT",NA,NA,"2012-10-09","2012-10-09",NA
"CDISCPILOT01","DS","01-708-1087",3,"RANDOMIZED","RANDOMIZED","DISPOSITION EVENT",NA,NA,"2012-10-22","2012-10-22",NA
"CDISCPILOT01","DS","01-708-1216",3,"RANDOMIZED","RANDOMIZED","DISPOSITION EVENT",NA,NA,"2012-10-24","2012-10-24",NA
"CDISCPILOT01","DS","01-701-1133",3,"RANDOMIZED","RANDOMIZED","DISPOSITION EVENT",NA,NA,"2012-10-28","2012-10-28",NA
"CDISCPILOT01","DS","01-701-1392",3,"RANDOMIZED","RANDOMIZED","DISPOSITION EVENT",NA,NA,"2012-10-28","2012-10-28",NA
"CDISCPILOT01","DS","01-710-1385",3,"RANDOMIZED","RANDOMIZED","DISPOSITION EVENT",NA,NA,"2012-10-29","2012-10-29",NA
"CDISCPILOT01","DS","01-713-1106",3,"RANDOMIZED","RANDOMIZED","DISPOSITION EVENT",NA,NA,"2012-10-31","2012-10-31",NA
"CDISCPILOT01","DS","01-710-1187",3,"RANDOMIZED","RANDOMIZED","DISPOSITION EVENT",NA,NA,"2012-11-10","2012-11-10",NA
"CDISCPILOT01","DS","01-710-1354",3,"RANDOMIZED","RANDOMIZED","DISPOSITION EVENT",NA,NA,"2012-11-11","2012-11-11",NA
"CDISCPILOT01","DS","01-701-1211",3,"RANDOMIZED","RANDOMIZED","DISPOSITION EVENT",NA,NA,"2012-11-15","2012-11-15",NA
"CDISCPILOT01","DS","01-704-1435",2,"RANDOMIZED","RANDOMIZED","DISPOSITION EVENT",NA,NA,"2012-11-17","2012-11-17",NA
"CDISCPILOT01","DS","01-715-1207",3,"RANDOMIZED","RANDOMIZED","DISPOSITION EVENT",NA,NA,"2012-11-18","2012-11-18",NA
"CDISCPILOT01","DS","01-704-1218",3,"RANDOMIZED","RANDOMIZED","DISPOSITION EVENT",NA,NA,"2012-11-19","2012-11-19",NA
"CDISCPILOT01","DS","01-701-1115",4,"RANDOMIZED","RANDOMIZED","DISPOSITION EVENT",NA,NA,"2012-11-30","2012-11-30",NA
"CDISCPILOT01","DS","01-710-1166",3,"RANDOMIZED","RANDOMIZED","DISPOSITION EVENT",NA,NA,"2012-11-30","2012-11-30",NA
"CDISCPILOT01","DS","01-709-1020",3,"RANDOMIZED","RANDOMIZED","DISPOSITION EVENT",NA,NA,"2012-12-01","2012-12-01",NA
"CDISCPILOT01","DS","01-708-1171",3,"RANDOMIZED","RANDOMIZED","DISPOSITION EVENT",NA,NA,"2012-12-06","2012-12-06",NA
"CDISCPILOT01","DS","01-704-1388",3,"RANDOMIZED","RANDOMIZED","DISPOSITION EVENT",NA,NA,"2012-12-07","2012-12-07",NA
"CDISCPILOT01","DS","01-708-1336",3,"RANDOMIZED","RANDOMIZED","DISPOSITION EVENT",NA,NA,"2012-12-07","2012-12-07",NA
"CDISCPILOT01","DS","01-703-1403",3,"RANDOMIZED","RANDOMIZED","DISPOSITION EVENT",NA,NA,"2012-12-12","2012-12-12",NA
"CDISCPILOT01","DS","01-716-1373",3,"RANDOMIZED","RANDOMIZED","DISPOSITION EVENT",NA,NA,"2012-12-14","2012-12-14",NA
"CDISCPILOT01","DS","01-710-1300",3,"RANDOMIZED","RANDOMIZED","DISPOSITION EVENT",NA,NA,"2012-12-15","2012-12-15",NA
"CDISCPILOT01","DS","01-718-1427",4,"RANDOMIZED","RANDOMIZED","DISPOSITION EVENT",NA,NA,"2012-12-17","2012-12-17",NA
"CDISCPILOT01","DS","01-716-1094",4,"RANDOMIZED","RANDOMIZED","DISPOSITION EVENT",NA,NA,"2012-12-19","2012-12-19",NA
"CDISCPILOT01","DS","01-709-1339",3,"RANDOMIZED","RANDOMIZED","DISPOSITION EVENT",NA,NA,"2012-12-23","2012-12-23",NA
"CDISCPILOT01","DS","01-710-1278",3,"RANDOMIZED","RANDOMIZED","DISPOSITION EVENT",NA,NA,"2012-12-24","2012-12-24",NA
"CDISCPILOT01","DS","01-709-1029",3,"RANDOMIZED","RANDOMIZED","DISPOSITION EVENT",NA,NA,"2012-12-25","2012-12-25",NA
"CDISCPILOT01","DS","01-705-1282",3,"RANDOMIZED","RANDOMIZED","DISPOSITION EVENT",NA,NA,"2012-12-26","2012-12-26",NA
"CDISCPILOT01","DS","01-710-1053",3,"RANDOMIZED","RANDOMIZED","DISPOSITION EVENT",NA,NA,"2012-12-26","2012-12-26",NA
"CDISCPILOT01","DS","01-708-1342",3,"RANDOMIZED","RANDOMIZED","DISPOSITION EVENT",NA,NA,"2012-12-29","2012-12-29",NA
"CDISCPILOT01","DS","01-710-1060",3,"RANDOMIZED","RANDOMIZED","DISPOSITION EVENT",NA,NA,"2013-01-01","2013-01-01",NA
"CDISCPILOT01","DS","01-701-1341",3,"RANDOMIZED","RANDOMIZED","DISPOSITION EVENT",NA,NA,"2013-01-05","2013-01-05",NA
"CDISCPILOT01","DS","01-701-1444",4,"RANDOMIZED","RANDOMIZED","DISPOSITION EVENT",NA,NA,"2013-01-05","2013-01-05",NA
"CDISCPILOT01","DS","01-710-1408",3,"RANDOMIZED","RANDOMIZED","DISPOSITION EVENT",NA,NA,"2013-01-05","2013-01-05",NA
"CDISCPILOT01","DS","01-704-1008",3,"RANDOMIZED","RANDOMIZED","DISPOSITION EVENT",NA,NA,"2013-01-13","2013-01-13",NA
"CDISCPILOT01","DS","01-709-1102",3,"RANDOMIZED","RANDOMIZED","DISPOSITION EVENT",NA,NA,"2013-01-15","2013-01-15",NA
"CDISCPILOT01","DS","01-718-1150",3,"RANDOMIZED","RANDOMIZED","DISPOSITION EVENT",NA,NA,"2013-01-19","2013-01-19",NA
"CDISCPILOT01","DS","01-717-1174",3,"RANDOMIZED","RANDOMIZED","DISPOSITION EVENT",NA,NA,"2013-01-22","2013-01-22",NA
"CDISCPILOT01","DS","01-704-1114",3,"RANDOMIZED","RANDOMIZED","DISPOSITION EVENT",NA,NA,"2013-01-23","2013-01-23",NA
"CDISCPILOT01","DS","01-703-1096",2,"RANDOMIZED","RANDOMIZED","DISPOSITION EVENT",NA,NA,"2013-01-25","2013-01-25",NA
"CDISCPILOT01","DS","01-708-1297",3,"RANDOMIZED","RANDOMIZED","DISPOSITION EVENT",NA,NA,"2013-01-25","2013-01-25",NA
"CDISCPILOT01","DS","01-709-1259",3,"RANDOMIZED","RANDOMIZED","DISPOSITION EVENT",NA,NA,"2013-01-26","2013-01-26",NA
"CDISCPILOT01","DS","01-711-1433",3,"RANDOMIZED","RANDOMIZED","DISPOSITION EVENT",NA,NA,"2013-01-27","2013-01-27",NA
"CDISCPILOT01","DS","01-716-1151",4,"RANDOMIZED","RANDOMIZED","DISPOSITION EVENT",NA,NA,"2013-02-01","2013-02-01",NA
"CDISCPILOT01","DS","01-718-1328",4,"RANDOMIZED","RANDOMIZED","DISPOSITION EVENT",NA,NA,"2013-02-01","2013-02-01",NA
"CDISCPILOT01","DS","01-701-1203",3,"RANDOMIZED","RANDOMIZED","DISPOSITION EVENT",NA,NA,"2013-02-02","2013-02-02",NA
"CDISCPILOT01","DS","01-701-1383",3,"RANDOMIZED","RANDOMIZED","DISPOSITION EVENT",NA,NA,"2013-02-04","2013-02-04",NA
"CDISCPILOT01","DS","01-708-1272",3,"RANDOMIZED","RANDOMIZED","DISPOSITION EVENT",NA,NA,"2013-02-06","2013-02-06",NA
"CDISCPILOT01","DS","01-708-1032",3,"RANDOMIZED","RANDOMIZED","DISPOSITION EVENT",NA,NA,"2013-02-09","2013-02-09",NA
"CDISCPILOT01","DS","01-708-1213",3,"RANDOMIZED","RANDOMIZED","DISPOSITION EVENT",NA,NA,"2013-02-09","2013-02-09",NA
"CDISCPILOT01","DS","01-710-1006",3,"RANDOMIZED","RANDOMIZED","DISPOSITION EVENT",NA,NA,"2013-02-10","2013-02-10",NA
"CDISCPILOT01","DS","01-701-1047",4,"RANDOMIZED","RANDOMIZED","DISPOSITION EVENT",NA,NA,"2013-02-12","2013-02-12",NA
"CDISCPILOT01","DS","01-701-1180",3,"RANDOMIZED","RANDOMIZED","DISPOSITION EVENT",NA,NA,"2013-02-12","2013-02-12",NA
"CDISCPILOT01","DS","01-716-1108",3,"RANDOMIZED","RANDOMIZED","DISPOSITION EVENT",NA,NA,"2013-02-12","2013-02-12",NA
"CDISCPILOT01","DS","01-701-1188",4,"RANDOMIZED","RANDOMIZED","DISPOSITION EVENT",NA,NA,"2013-02-15","2013-02-15",NA
"CDISCPILOT01","DS","01-715-1085",3,"RANDOMIZED","RANDOMIZED","DISPOSITION EVENT",NA,NA,"2013-02-16","2013-02-16",NA
"CDISCPILOT01","DS","01-715-1319",2,"RANDOMIZED","RANDOMIZED","DISPOSITION EVENT",NA,NA,"2013-02-17","2013-02-17",NA
"CDISCPILOT01","DS","01-718-1101",2,"RANDOMIZED","RANDOMIZED","DISPOSITION EVENT",NA,NA,"2013-02-17","2013-02-17",NA
"CDISCPILOT01","DS","01-703-1119",4,"RANDOMIZED","RANDOMIZED","DISPOSITION EVENT",NA,NA,"2013-02-20","2013-02-20",NA
"CDISCPILOT01","DS","01-716-1229",3,"RANDOMIZED","RANDOMIZED","DISPOSITION EVENT",NA,NA,"2013-02-20","2013-02-20",NA
"CDISCPILOT01","DS","01-714-1375",3,"RANDOMIZED","RANDOMIZED","DISPOSITION EVENT",NA,NA,"2013-02-26","2013-02-26",NA
"CDISCPILOT01","DS","01-715-1107",4,"RANDOMIZED","RANDOMIZED","DISPOSITION EVENT",NA,NA,"2013-02-26","2013-02-26",NA
"CDISCPILOT01","DS","01-710-1315",3,"RANDOMIZED","RANDOMIZED","DISPOSITION EVENT",NA,NA,"2013-02-27","2013-02-27",NA
"CDISCPILOT01","DS","01-718-1355",3,"RANDOMIZED","RANDOMIZED","DISPOSITION EVENT",NA,NA,"2013-02-28","2013-02-28",NA
"CDISCPILOT01","DS","01-703-1042",3,"RANDOMIZED","RANDOMIZED","DISPOSITION EVENT",NA,NA,"2013-03-02","2013-03-02",NA
"CDISCPILOT01","DS","01-709-1424",3,"RANDOMIZED","RANDOMIZED","DISPOSITION EVENT",NA,NA,"2013-03-03","2013-03-03",NA
"CDISCPILOT01","DS","01-709-1217",3,"RANDOMIZED","RANDOMIZED","DISPOSITION EVENT",NA,NA,"2013-03-04","2013-03-04",NA
"CDISCPILOT01","DS","01-705-1349",3,"RANDOMIZED","RANDOMIZED","DISPOSITION EVENT",NA,NA,"2013-03-10","2013-03-10",NA
"CDISCPILOT01","DS","01-703-1100",3,"RANDOMIZED","RANDOMIZED","DISPOSITION EVENT",NA,NA,"2013-03-13","2013-03-13",NA
"CDISCPILOT01","DS","01-704-1093",4,"RANDOMIZED","RANDOMIZED","DISPOSITION EVENT",NA,NA,"2013-03-15","2013-03-15",NA
"CDISCPILOT01","DS","01-703-1210",3,"RANDOMIZED","RANDOMIZED","DISPOSITION EVENT",NA,NA,"2013-03-16","2013-03-16",NA
"CDISCPILOT01","DS","01-701-1429",2,"RANDOMIZED","RANDOMIZED","DISPOSITION EVENT",NA,NA,"2013-03-19","2013-03-19",NA
"CDISCPILOT01","DS","01-704-1233",2,"RANDOMIZED","RANDOMIZED","DISPOSITION EVENT",NA,NA,"2013-03-21","2013-03-21",NA
"CDISCPILOT01","DS","01-701-1294",4,"RANDOMIZED","RANDOMIZED","DISPOSITION EVENT",NA,NA,"2013-03-24","2013-03-24",NA
"CDISCPILOT01","DS","01-709-1285",2,"RANDOMIZED","RANDOMIZED","DISPOSITION EVENT",NA,NA,"2013-03-24","2013-03-24",NA
"CDISCPILOT01","DS","01-701-1234",3,"RANDOMIZED","RANDOMIZED","DISPOSITION EVENT",NA,NA,"2013-03-30","2013-03-30",NA
"CDISCPILOT01","DS","01-711-1012",4,"RANDOMIZED","RANDOMIZED","DISPOSITION EVENT",NA,NA,"2013-04-03","2013-04-03",NA
"CDISCPILOT01","DS","01-711-1143",4,"RANDOMIZED","RANDOMIZED","DISPOSITION EVENT",NA,NA,"2013-04-03","2013-04-03",NA
"CDISCPILOT01","DS","01-715-1397",3,"RANDOMIZED","RANDOMIZED","DISPOSITION EVENT",NA,NA,"2013-04-03","2013-04-03",NA
"CDISCPILOT01","DS","01-709-1326",3,"RANDOMIZED","RANDOMIZED","DISPOSITION EVENT",NA,NA,"2013-04-05","2013-04-05",NA
"CDISCPILOT01","DS","01-716-1160",3,"RANDOMIZED","RANDOMIZED","DISPOSITION EVENT",NA,NA,"2013-04-05","2013-04-05",NA
"CDISCPILOT01","DS","01-716-1298",4,"RANDOMIZED","RANDOMIZED","DISPOSITION EVENT",NA,NA,"2013-04-08","2013-04-08",NA
"CDISCPILOT01","DS","01-708-1372",3,"RANDOMIZED","RANDOMIZED","DISPOSITION EVENT",NA,NA,"2013-04-12","2013-04-12",NA
"CDISCPILOT01","DS","01-708-1347",3,"RANDOMIZED","RANDOMIZED","DISPOSITION EVENT",NA,NA,"2013-04-20","2013-04-20",NA
"CDISCPILOT01","DS","01-710-1314",3,"RANDOMIZED","RANDOMIZED","DISPOSITION EVENT",NA,NA,"2013-04-24","2013-04-24",NA
"CDISCPILOT01","DS","01-714-1195",3,"RANDOMIZED","RANDOMIZED","DISPOSITION EVENT",NA,NA,"2013-04-26","2013-04-26",NA
"CDISCPILOT01","DS","01-718-1371",3,"RANDOMIZED","RANDOMIZED","DISPOSITION EVENT",NA,NA,"2013-04-26","2013-04-26",NA
"CDISCPILOT01","DS","01-716-1044",3,"RANDOMIZED","RANDOMIZED","DISPOSITION EVENT",NA,NA,"2013-04-27","2013-04-27",NA
"CDISCPILOT01","DS","01-717-1357",2,"RANDOMIZED","RANDOMIZED","DISPOSITION EVENT",NA,NA,"2013-05-01","2013-05-01",NA
"CDISCPILOT01","DS","01-716-1418",3,"RANDOMIZED","RANDOMIZED","DISPOSITION EVENT",NA,NA,"2013-05-05","2013-05-05",NA
"CDISCPILOT01","DS","01-708-1253",3,"RANDOMIZED","RANDOMIZED","DISPOSITION EVENT",NA,NA,"2013-05-07","2013-05-07",NA
"CDISCPILOT01","DS","01-708-1084",3,"RANDOMIZED","RANDOMIZED","DISPOSITION EVENT",NA,NA,"2013-05-09","2013-05-09",NA
"CDISCPILOT01","DS","01-716-1063",4,"RANDOMIZED","RANDOMIZED","DISPOSITION EVENT",NA,NA,"2013-05-09","2013-05-09",NA
"CDISCPILOT01","DS","01-703-1279",3,"RANDOMIZED","RANDOMIZED","DISPOSITION EVENT",NA,NA,"2013-05-13","2013-05-13",NA
"CDISCPILOT01","DS","01-705-1382",3,"RANDOMIZED","RANDOMIZED","DISPOSITION EVENT",NA,NA,"2013-05-13","2013-05-13",NA
"CDISCPILOT01","DS","01-706-1049",4,"RANDOMIZED","RANDOMIZED","DISPOSITION EVENT",NA,NA,"2013-05-14","2013-05-14",NA
"CDISCPILOT01","DS","01-709-1238",3,"RANDOMIZED","RANDOMIZED","DISPOSITION EVENT",NA,NA,"2013-05-15","2013-05-15",NA
"CDISCPILOT01","DS","01-718-1139",3,"RANDOMIZED","RANDOMIZED","DISPOSITION EVENT",NA,NA,"2013-05-19","2013-05-19",NA
"CDISCPILOT01","DS","01-701-1146",3,"RANDOMIZED","RANDOMIZED","DISPOSITION EVENT",NA,NA,"2013-05-20","2013-05-20",NA
"CDISCPILOT01","DS","01-713-1209",3,"RANDOMIZED","RANDOMIZED","DISPOSITION EVENT",NA,NA,"2013-05-27","2013-05-27",NA
"CDISCPILOT01","DS","01-701-1363",3,"RANDOMIZED","RANDOMIZED","DISPOSITION EVENT",NA,NA,"2013-05-30","2013-05-30",NA
"CDISCPILOT01","DS","01-713-1141",3,"RANDOMIZED","RANDOMIZED","DISPOSITION EVENT",NA,NA,"2013-05-31","2013-05-31",NA
"CDISCPILOT01","DS","01-710-1045",3,"RANDOMIZED","RANDOMIZED","DISPOSITION EVENT",NA,NA,"2013-06-03","2013-06-03",NA
"CDISCPILOT01","DS","01-716-1071",4,"RANDOMIZED","RANDOMIZED","DISPOSITION EVENT",NA,NA,"2013-06-08","2013-06-08",NA
"CDISCPILOT01","DS","01-710-1264",3,"RANDOMIZED","RANDOMIZED","DISPOSITION EVENT",NA,NA,"2013-06-13","2013-06-13",NA
"CDISCPILOT01","DS","01-708-1296",3,"RANDOMIZED","RANDOMIZED","DISPOSITION EVENT",NA,NA,"2013-06-14","2013-06-14",NA
"CDISCPILOT01","DS","01-703-1197",3,"RANDOMIZED","RANDOMIZED","DISPOSITION EVENT",NA,NA,"2013-06-16","2013-06-16",NA
"CDISCPILOT01","DS","01-709-1309",3,"RANDOMIZED","RANDOMIZED","DISPOSITION EVENT",NA,NA,"2013-06-19","2013-06-19",NA
"CDISCPILOT01","DS","01-705-1431",3,"RANDOMIZED","RANDOMIZED","DISPOSITION EVENT",NA,NA,"2013-06-23","2013-06-23",NA
"CDISCPILOT01","DS","01-708-1353",3,"RANDOMIZED","RANDOMIZED","DISPOSITION EVENT",NA,NA,"2013-07-04","2013-07-04",NA
"CDISCPILOT01","DS","01-716-1364",3,"RANDOMIZED","RANDOMIZED","DISPOSITION EVENT",NA,NA,"2013-07-04","2013-07-04",NA
"CDISCPILOT01","DS","01-705-1018",3,"RANDOMIZED","RANDOMIZED","DISPOSITION EVENT",NA,NA,"2013-07-05","2013-07-05",NA
"CDISCPILOT01","DS","01-715-1405",4,"RANDOMIZED","RANDOMIZED","DISPOSITION EVENT",NA,NA,"2013-07-06","2013-07-06",NA
"CDISCPILOT01","DS","01-718-1066",3,"RANDOMIZED","RANDOMIZED","DISPOSITION EVENT",NA,NA,"2013-07-07","2013-07-07",NA
"CDISCPILOT01","DS","01-704-1323",3,"RANDOMIZED","RANDOMIZED","DISPOSITION EVENT",NA,NA,"2013-07-08","2013-07-08",NA
"CDISCPILOT01","DS","01-718-1254",3,"RANDOMIZED","RANDOMIZED","DISPOSITION EVENT",NA,NA,"2013-07-10","2013-07-10",NA
"CDISCPILOT01","DS","01-701-1028",3,"RANDOMIZED","RANDOMIZED","DISPOSITION EVENT",NA,NA,"2013-07-19","2013-07-19",NA
"CDISCPILOT01","DS","01-709-1301",3,"RANDOMIZED","RANDOMIZED","DISPOSITION EVENT",NA,NA,"2013-07-19","2013-07-19",NA
"CDISCPILOT01","DS","01-710-1083",3,"RANDOMIZED","RANDOMIZED","DISPOSITION EVENT",NA,NA,"2013-07-22","2013-07-22",NA
"CDISCPILOT01","DS","01-702-1082",3,"RANDOMIZED","RANDOMIZED","DISPOSITION EVENT",NA,NA,"2013-07-26","2013-07-26",NA
"CDISCPILOT01","DS","01-701-1360",4,"RANDOMIZED","RANDOMIZED","DISPOSITION EVENT",NA,NA,"2013-07-31","2013-07-31",NA
"CDISCPILOT01","DS","01-709-1168",3,"RANDOMIZED","RANDOMIZED","DISPOSITION EVENT",NA,NA,"2013-08-02","2013-08-02",NA
"CDISCPILOT01","DS","01-705-1059",4,"RANDOMIZED","RANDOMIZED","DISPOSITION EVENT",NA,NA,"2013-08-05","2013-08-05",NA
"CDISCPILOT01","DS","01-708-1348",3,"RANDOMIZED","RANDOMIZED","DISPOSITION EVENT",NA,NA,"2013-08-05","2013-08-05",NA
"CDISCPILOT01","DS","01-701-1440",3,"RANDOMIZED","RANDOMIZED","DISPOSITION EVENT",NA,NA,"2013-08-08","2013-08-08",NA
"CDISCPILOT01","DS","01-714-1068",3,"RANDOMIZED","RANDOMIZED","DISPOSITION EVENT",NA,NA,"2013-08-08","2013-08-08",NA
"CDISCPILOT01","DS","01-713-1179",3,"RANDOMIZED","RANDOMIZED","DISPOSITION EVENT",NA,NA,"2013-08-09","2013-08-09",NA
"CDISCPILOT01","DS","01-709-1329",3,"RANDOMIZED","RANDOMIZED","DISPOSITION EVENT",NA,NA,"2013-08-15","2013-08-15",NA
"CDISCPILOT01","DS","01-714-1425",2,"RANDOMIZED","RANDOMIZED","DISPOSITION EVENT",NA,NA,"2013-08-15","2013-08-15",NA
"CDISCPILOT01","DS","01-701-1148",3,"RANDOMIZED","RANDOMIZED","DISPOSITION EVENT",NA,NA,"2013-08-23","2013-08-23",NA
"CDISCPILOT01","DS","01-708-1316",3,"RANDOMIZED","RANDOMIZED","DISPOSITION EVENT",NA,NA,"2013-08-23","2013-08-23",NA
"CDISCPILOT01","DS","01-704-1241",3,"RANDOMIZED","RANDOMIZED","DISPOSITION EVENT",NA,NA,"2013-08-25","2013-08-25",NA
"CDISCPILOT01","DS","01-704-1009",2,"RANDOMIZED","RANDOMIZED","DISPOSITION EVENT",NA,NA,"2013-08-27","2013-08-27",NA
"CDISCPILOT01","DS","01-716-1308",3,"RANDOMIZED","RANDOMIZED","DISPOSITION EVENT",NA,NA,"2013-08-28","2013-08-28",NA
"CDISCPILOT01","DS","01-701-1302",4,"RANDOMIZED","RANDOMIZED","DISPOSITION EVENT",NA,NA,"2013-08-29","2013-08-29",NA
"CDISCPILOT01","DS","01-717-1446",3,"RANDOMIZED","RANDOMIZED","DISPOSITION EVENT",NA,NA,"2013-09-01","2013-09-01",NA
"CDISCPILOT01","DS","01-708-1378",2,"RANDOMIZED","RANDOMIZED","DISPOSITION EVENT",NA,NA,"2013-09-03","2013-09-03",NA
"CDISCPILOT01","DS","01-708-1286",3,"RANDOMIZED","RANDOMIZED","DISPOSITION EVENT",NA,NA,"2013-09-10","2013-09-10",NA
"CDISCPILOT01","DS","01-713-1043",3,"RANDOMIZED","RANDOMIZED","DISPOSITION EVENT",NA,NA,"2013-09-15","2013-09-15",NA
"CDISCPILOT01","DS","01-705-1199",3,"RANDOMIZED","RANDOMIZED","DISPOSITION EVENT",NA,NA,"2013-09-16","2013-09-16",NA
"CDISCPILOT01","DS","01-718-1170",4,"RANDOMIZED","RANDOMIZED","DISPOSITION EVENT",NA,NA,"2013-09-16","2013-09-16",NA
"CDISCPILOT01","DS","01-710-1078",3,"RANDOMIZED","RANDOMIZED","DISPOSITION EVENT",NA,NA,"2013-09-17","2013-09-17",NA
"CDISCPILOT01","DS","01-708-1236",3,"RANDOMIZED","RANDOMIZED","DISPOSITION EVENT",NA,NA,"2013-09-21","2013-09-21",NA
"CDISCPILOT01","DS","01-718-1172",4,"RANDOMIZED","RANDOMIZED","DISPOSITION EVENT",NA,NA,"2013-09-21","2013-09-21",NA
"CDISCPILOT01","DS","01-718-1250",4,"RANDOMIZED","RANDOMIZED","DISPOSITION EVENT",NA,NA,"2013-09-21","2013-09-21",NA
"CDISCPILOT01","DS","01-703-1379",3,"RANDOMIZED","RANDOMIZED","DISPOSITION EVENT",NA,NA,"2013-09-22","2013-09-22",NA
"CDISCPILOT01","DS","01-701-1153",3,"RANDOMIZED","RANDOMIZED","DISPOSITION EVENT",NA,NA,"2013-09-23","2013-09-23",NA
"CDISCPILOT01","DS","01-701-1415",3,"RANDOMIZED","RANDOMIZED","DISPOSITION EVENT",NA,NA,"2013-09-23","2013-09-23",NA
"CDISCPILOT01","DS","01-704-1025",3,"RANDOMIZED","RANDOMIZED","DISPOSITION EVENT",NA,NA,"2013-09-27","2013-09-27",NA
"CDISCPILOT01","DS","01-710-1021",3,"RANDOMIZED","RANDOMIZED","DISPOSITION EVENT",NA,NA,"2013-09-27","2013-09-27",NA
"CDISCPILOT01","DS","01-704-1127",3,"RANDOMIZED","RANDOMIZED","DISPOSITION EVENT",NA,NA,"2013-10-02","2013-10-02",NA
"CDISCPILOT01","DS","01-716-1157",3,"RANDOMIZED","RANDOMIZED","DISPOSITION EVENT",NA,NA,"2013-10-02","2013-10-02",NA
"CDISCPILOT01","DS","01-704-1017",3,"RANDOMIZED","RANDOMIZED","DISPOSITION EVENT",NA,NA,"2013-10-06","2013-10-06",NA
"CDISCPILOT01","DS","01-701-1345",2,"RANDOMIZED","RANDOMIZED","DISPOSITION EVENT",NA,NA,"2013-10-08","2013-10-08",NA
"CDISCPILOT01","DS","01-709-1001",3,"RANDOMIZED","RANDOMIZED","DISPOSITION EVENT",NA,NA,"2013-10-08","2013-10-08",NA
"CDISCPILOT01","DS","01-710-1137",3,"RANDOMIZED","RANDOMIZED","DISPOSITION EVENT",NA,NA,"2013-10-11","2013-10-11",NA
"CDISCPILOT01","DS","01-704-1351",3,"RANDOMIZED","RANDOMIZED","DISPOSITION EVENT",NA,NA,"2013-10-12","2013-10-12",NA
"CDISCPILOT01","DS","01-704-1266",3,"RANDOMIZED","RANDOMIZED","DISPOSITION EVENT",NA,NA,"2013-10-13","2013-10-13",NA
"CDISCPILOT01","DS","01-705-1292",3,"RANDOMIZED","RANDOMIZED","DISPOSITION EVENT",NA,NA,"2013-10-14","2013-10-14",NA
"CDISCPILOT01","DS","01-703-1182",3,"RANDOMIZED","RANDOMIZED","DISPOSITION EVENT",NA,NA,"2013-10-17","2013-10-17",NA
"CDISCPILOT01","DS","01-710-1368",3,"RANDOMIZED","RANDOMIZED","DISPOSITION EVENT",NA,NA,"2013-10-23","2013-10-23",NA
"CDISCPILOT01","DS","01-704-1065",3,"RANDOMIZED","RANDOMIZED","DISPOSITION EVENT",NA,NA,"2013-10-24","2013-10-24",NA
"CDISCPILOT01","DS","01-703-1076",3,"RANDOMIZED","RANDOMIZED","DISPOSITION EVENT",NA,NA,"2013-10-25","2013-10-25",NA
"CDISCPILOT01","DS","01-709-1099",3,"RANDOMIZED","RANDOMIZED","DISPOSITION EVENT",NA,NA,"2013-10-25","2013-10-25",NA
"CDISCPILOT01","DS","01-701-1442",3,"RANDOMIZED","RANDOMIZED","DISPOSITION EVENT",NA,NA,"2013-10-26","2013-10-26",NA
"CDISCPILOT01","DS","01-707-1206",3,"RANDOMIZED","RANDOMIZED","DISPOSITION EVENT",NA,NA,"2013-10-28","2013-10-28",NA
"CDISCPILOT01","DS","01-704-1135",3,"RANDOMIZED","RANDOMIZED","DISPOSITION EVENT",NA,NA,"2013-10-31","2013-10-31",NA
"CDISCPILOT01","DS","01-705-1310",3,"RANDOMIZED","RANDOMIZED","DISPOSITION EVENT",NA,NA,"2013-11-02","2013-11-02",NA
"CDISCPILOT01","DS","01-708-1428",3,"RANDOMIZED","RANDOMIZED","DISPOSITION EVENT",NA,NA,"2013-11-09","2013-11-09",NA
"CDISCPILOT01","DS","01-710-1183",3,"RANDOMIZED","RANDOMIZED","DISPOSITION EVENT",NA,NA,"2013-11-16","2013-11-16",NA
"CDISCPILOT01","DS","01-710-1077",3,"RANDOMIZED","RANDOMIZED","DISPOSITION EVENT",NA,NA,"2013-11-17","2013-11-17",NA
"CDISCPILOT01","DS","01-703-1295",3,"RANDOMIZED","RANDOMIZED","DISPOSITION EVENT",NA,NA,"2013-11-21","2013-11-21",NA
"CDISCPILOT01","DS","01-705-1031",2,"RANDOMIZED","RANDOMIZED","DISPOSITION EVENT",NA,NA,"2013-11-27","2013-11-27",NA
"CDISCPILOT01","DS","01-705-1281",3,"RANDOMIZED","RANDOMIZED","DISPOSITION EVENT",NA,NA,"2013-11-28","2013-11-28",NA
"CDISCPILOT01","DS","01-704-1120",3,"RANDOMIZED","RANDOMIZED","DISPOSITION EVENT",NA,NA,"2013-12-02","2013-12-02",NA
"CDISCPILOT01","DS","01-714-1288",3,"RANDOMIZED","RANDOMIZED","DISPOSITION EVENT",NA,NA,"2013-12-04","2013-12-04",NA
"CDISCPILOT01","DS","01-701-1181",4,"RANDOMIZED","RANDOMIZED","DISPOSITION EVENT",NA,NA,"2013-12-05","2013-12-05",NA
"CDISCPILOT01","DS","01-704-1332",3,"RANDOMIZED","RANDOMIZED","DISPOSITION EVENT",NA,NA,"2013-12-09","2013-12-09",NA
"CDISCPILOT01","DS","01-715-1155",3,"RANDOMIZED","RANDOMIZED","DISPOSITION EVENT",NA,NA,"2013-12-13","2013-12-13",NA
"CDISCPILOT01","DS","01-705-1303",3,"RANDOMIZED","RANDOMIZED","DISPOSITION EVENT",NA,NA,"2013-12-16","2013-12-16",NA
"CDISCPILOT01","DS","01-716-1447",3,"RANDOMIZED","RANDOMIZED","DISPOSITION EVENT",NA,NA,"2013-12-16","2013-12-16",NA
"CDISCPILOT01","DS","01-717-1201",3,"RANDOMIZED","RANDOMIZED","DISPOSITION EVENT",NA,NA,"2013-12-19","2013-12-19",NA
"CDISCPILOT01","DS","01-703-1175",3,"RANDOMIZED","RANDOMIZED","DISPOSITION EVENT",NA,NA,"2013-12-20","2013-12-20",NA
"CDISCPILOT01","DS","01-707-1037",2,"RANDOMIZED","RANDOMIZED","DISPOSITION EVENT",NA,NA,"2013-12-20","2013-12-20",NA
"CDISCPILOT01","DS","01-708-1019",3,"RANDOMIZED","RANDOMIZED","DISPOSITION EVENT",NA,NA,"2013-12-20","2013-12-20",NA
"CDISCPILOT01","DS","01-708-1406",3,"RANDOMIZED","RANDOMIZED","DISPOSITION EVENT",NA,NA,"2013-12-26","2013-12-26",NA
"CDISCPILOT01","DS","01-710-1249",3,"RANDOMIZED","RANDOMIZED","DISPOSITION EVENT",NA,NA,"2013-12-28","2013-12-28",NA
"CDISCPILOT01","DS","01-716-1030",3,"RANDOMIZED","RANDOMIZED","DISPOSITION EVENT",NA,NA,"2013-12-28","2013-12-28",NA
"CDISCPILOT01","DS","01-708-1178",3,"RANDOMIZED","RANDOMIZED","DISPOSITION EVENT",NA,NA,"2013-12-29","2013-12-29",NA
"CDISCPILOT01","DS","01-706-1041",3,"RANDOMIZED","RANDOMIZED","DISPOSITION EVENT",NA,NA,"2013-12-31","2013-12-31",NA
"CDISCPILOT01","DS","01-701-1097",3,"RANDOMIZED","RANDOMIZED","DISPOSITION EVENT",NA,NA,"2014-01-01","2014-01-01",NA
"CDISCPILOT01","DS","01-701-1015",3,"RANDOMIZED","RANDOMIZED","DISPOSITION EVENT",NA,NA,"2014-01-02","2014-01-02",NA
"CDISCPILOT01","DS","01-705-1377",3,"RANDOMIZED","RANDOMIZED","DISPOSITION EVENT",NA,NA,"2014-01-04","2014-01-04",NA
"CDISCPILOT01","DS","01-705-1186",3,"RANDOMIZED","RANDOMIZED","DISPOSITION EVENT",NA,NA,"2014-01-08","2014-01-08",NA
"CDISCPILOT01","DS","01-701-1239",3,"RANDOMIZED","RANDOMIZED","DISPOSITION EVENT",NA,NA,"2014-01-11","2014-01-11",NA
"CDISCPILOT01","DS","01-717-1344",3,"RANDOMIZED","RANDOMIZED","DISPOSITION EVENT",NA,NA,"2014-01-11","2014-01-11",NA
"CDISCPILOT01","DS","01-710-1002",3,"RANDOMIZED","RANDOMIZED","DISPOSITION EVENT",NA,NA,"2014-01-14","2014-01-14",NA
"CDISCPILOT01","DS","01-717-1004",3,"RANDOMIZED","RANDOMIZED","DISPOSITION EVENT",NA,NA,"2014-01-14","2014-01-14",NA
"CDISCPILOT01","DS","01-705-1280",3,"RANDOMIZED","RANDOMIZED","DISPOSITION EVENT",NA,NA,"2014-01-17","2014-01-17",NA
"CDISCPILOT01","DS","01-709-1081",3,"RANDOMIZED","RANDOMIZED","DISPOSITION EVENT",NA,NA,"2014-01-18","2014-01-18",NA
"CDISCPILOT01","DS","01-713-1448",4,"RANDOMIZED","RANDOMIZED","DISPOSITION EVENT",NA,NA,"2014-01-19","2014-01-19",NA
"CDISCPILOT01","DS","01-704-1074",3,"RANDOMIZED","RANDOMIZED","DISPOSITION EVENT",NA,NA,"2014-01-22","2014-01-22",NA
"CDISCPILOT01","DS","01-716-1441",3,"RANDOMIZED","RANDOMIZED","DISPOSITION EVENT",NA,NA,"2014-01-22","2014-01-22",NA
"CDISCPILOT01","DS","01-701-1287",3,"RANDOMIZED","RANDOMIZED","DISPOSITION EVENT",NA,NA,"2014-01-25","2014-01-25",NA
"CDISCPILOT01","DS","01-713-1269",3,"RANDOMIZED","RANDOMIZED","DISPOSITION EVENT",NA,NA,"2014-01-27","2014-01-27",NA
"CDISCPILOT01","DS","01-717-1109",3,"RANDOMIZED","RANDOMIZED","DISPOSITION EVENT",NA,NA,"2014-01-27","2014-01-27",NA
"CDISCPILOT01","DS","01-709-1306",3,"RANDOMIZED","RANDOMIZED","DISPOSITION EVENT",NA,NA,"2014-02-03","2014-02-03",NA
"CDISCPILOT01","DS","01-701-1275",2,"RANDOMIZED","RANDOMIZED","DISPOSITION EVENT",NA,NA,"2014-02-07","2014-02-07",NA
"CDISCPILOT01","DS","01-708-1158",3,"RANDOMIZED","RANDOMIZED","DISPOSITION EVENT",NA,NA,"2014-02-08","2014-02-08",NA
"CDISCPILOT01","DS","01-715-1321",3,"RANDOMIZED","RANDOMIZED","DISPOSITION EVENT",NA,NA,"2014-02-11","2014-02-11",NA
"CDISCPILOT01","DS","01-710-1270",3,"RANDOMIZED","RANDOMIZED","DISPOSITION EVENT",NA,NA,"2014-02-12","2014-02-12",NA
"CDISCPILOT01","DS","01-701-1130",3,"RANDOMIZED","RANDOMIZED","DISPOSITION EVENT",NA,NA,"2014-02-15","2014-02-15",NA
"CDISCPILOT01","DS","01-704-1010",3,"RANDOMIZED","RANDOMIZED","DISPOSITION EVENT",NA,NA,"2014-02-21","2014-02-21",NA
"CDISCPILOT01","DS","01-710-1027",3,"RANDOMIZED","RANDOMIZED","DISPOSITION EVENT",NA,NA,"2014-02-28","2014-02-28",NA
"CDISCPILOT01","DS","01-701-1118",3,"RANDOMIZED","RANDOMIZED","DISPOSITION EVENT",NA,NA,"2014-03-12","2014-03-12",NA
"CDISCPILOT01","DS","01-701-1387",4,"RANDOMIZED","RANDOMIZED","DISPOSITION EVENT",NA,NA,"2014-03-12","2014-03-12",NA
"CDISCPILOT01","DS","01-703-1439",3,"RANDOMIZED","RANDOMIZED","DISPOSITION EVENT",NA,NA,"2014-03-12","2014-03-12",NA
"CDISCPILOT01","DS","01-703-1335",3,"RANDOMIZED","RANDOMIZED","DISPOSITION EVENT",NA,NA,"2014-03-17","2014-03-17",NA
"CDISCPILOT01","DS","01-701-1033",3,"RANDOMIZED","RANDOMIZED","DISPOSITION EVENT",NA,NA,"2014-03-18","2014-03-18",NA
"CDISCPILOT01","DS","01-716-1103",3,"RANDOMIZED","RANDOMIZED","DISPOSITION EVENT",NA,NA,"2014-03-20","2014-03-20",NA
"CDISCPILOT01","DS","01-710-1154",3,"RANDOMIZED","RANDOMIZED","DISPOSITION EVENT",NA,NA,"2014-03-29","2014-03-29",NA
"CDISCPILOT01","DS","01-713-1073",3,"RANDOMIZED","RANDOMIZED","DISPOSITION EVENT",NA,NA,"2014-03-30","2014-03-30",NA
"CDISCPILOT01","DS","01-716-1026",3,"RANDOMIZED","RANDOMIZED","DISPOSITION EVENT",NA,NA,"2014-04-02","2014-04-02",NA
"CDISCPILOT01","DS","01-709-1088",3,"RANDOMIZED","RANDOMIZED","DISPOSITION EVENT",NA,NA,"2014-04-12","2014-04-12",NA
"CDISCPILOT01","DS","01-714-1035",3,"RANDOMIZED","RANDOMIZED","DISPOSITION EVENT",NA,NA,"2014-04-17","2014-04-17",NA
"CDISCPILOT01","DS","01-709-1312",3,"RANDOMIZED","RANDOMIZED","DISPOSITION EVENT",NA,NA,"2014-04-20","2014-04-20",NA
"CDISCPILOT01","DS","01-704-1325",3,"RANDOMIZED","RANDOMIZED","DISPOSITION EVENT",NA,NA,"2014-04-23","2014-04-23",NA
"CDISCPILOT01","DS","01-704-1445",3,"RANDOMIZED","RANDOMIZED","DISPOSITION EVENT",NA,NA,"2014-05-11","2014-05-11",NA
"CDISCPILOT01","DS","01-716-1311",4,"RANDOMIZED","RANDOMIZED","DISPOSITION EVENT",NA,NA,"2014-05-14","2014-05-14",NA
"CDISCPILOT01","DS","01-701-1317",3,"RANDOMIZED","RANDOMIZED","DISPOSITION EVENT",NA,NA,"2014-05-22","2014-05-22",NA
"CDISCPILOT01","DS","01-701-1034",3,"RANDOMIZED","RANDOMIZED","DISPOSITION EVENT",NA,NA,"2014-07-01","2014-07-01",NA
"CDISCPILOT01","DS","01-716-1177",3,"RANDOMIZED","RANDOMIZED","DISPOSITION EVENT",NA,NA,"2014-09-02","2014-09-02",NA
"CDISCPILOT01","DS","01-708-1242",1,"SCREEN FAILURE","SCREEN FAILURE","DISPOSITION EVENT",NA,NA,"2012-08-13","2012-08-13",NA
"CDISCPILOT01","DS","01-701-1176",1,"SCREEN FAILURE","SCREEN FAILURE","DISPOSITION EVENT",NA,NA,"2012-09-30","2012-09-30",NA
"CDISCPILOT01","DS","01-711-1173",1,"SCREEN FAILURE","SCREEN FAILURE","DISPOSITION EVENT",NA,NA,"2012-10-04","2012-10-04",NA
"CDISCPILOT01","DS","01-707-1276",1,"SCREEN FAILURE","SCREEN FAILURE","DISPOSITION EVENT",NA,NA,"2012-10-12","2012-10-12",NA
"CDISCPILOT01","DS","01-708-1013",1,"SCREEN FAILURE","SCREEN FAILURE","DISPOSITION EVENT",NA,NA,"2012-10-13","2012-10-13",NA
"CDISCPILOT01","DS","01-715-1407",1,"SCREEN FAILURE","SCREEN FAILURE","DISPOSITION EVENT",NA,NA,"2012-10-24","2012-10-24",NA
"CDISCPILOT01","DS","01-711-1163",1,"SCREEN FAILURE","SCREEN FAILURE","DISPOSITION EVENT",NA,NA,"2012-11-08","2012-11-08",NA
"CDISCPILOT01","DS","01-701-1411",1,"SCREEN FAILURE","SCREEN FAILURE","DISPOSITION EVENT",NA,NA,"2012-11-14","2012-11-14",NA
"CDISCPILOT01","DS","01-705-1421",1,"SCREEN FAILURE","SCREEN FAILURE","DISPOSITION EVENT",NA,NA,"2013-01-14","2013-01-14",NA
"CDISCPILOT01","DS","01-708-1184",1,"SCREEN FAILURE","SCREEN FAILURE","DISPOSITION EVENT",NA,NA,"2013-01-14","2013-01-14",NA
"CDISCPILOT01","DS","01-715-1225",1,"SCREEN FAILURE","SCREEN FAILURE","DISPOSITION EVENT",NA,NA,"2013-01-22","2013-01-22",NA
"CDISCPILOT01","DS","01-708-1067",1,"SCREEN FAILURE","SCREEN FAILURE","DISPOSITION EVENT",NA,NA,"2013-02-07","2013-02-07",NA
"CDISCPILOT01","DS","01-705-1243",1,"SCREEN FAILURE","SCREEN FAILURE","DISPOSITION EVENT",NA,NA,"2013-02-26","2013-02-26",NA
"CDISCPILOT01","DS","01-710-1129",1,"SCREEN FAILURE","SCREEN FAILURE","DISPOSITION EVENT",NA,NA,"2013-03-05","2013-03-05",NA
"CDISCPILOT01","DS","01-701-1162",1,"SCREEN FAILURE","SCREEN FAILURE","DISPOSITION EVENT",NA,NA,"2013-04-18","2013-04-18",NA
"CDISCPILOT01","DS","01-710-1380",1,"SCREEN FAILURE","SCREEN FAILURE","DISPOSITION EVENT",NA,NA,"2013-06-02","2013-06-02",NA
"CDISCPILOT01","DS","01-715-1333",1,"SCREEN FAILURE","SCREEN FAILURE","DISPOSITION EVENT",NA,NA,"2013-06-03","2013-06-03",NA
"CDISCPILOT01","DS","01-707-1434",1,"SCREEN FAILURE","SCREEN FAILURE","DISPOSITION EVENT",NA,NA,"2013-07-25","2013-07-25",NA
"CDISCPILOT01","DS","01-711-1284",1,"SCREEN FAILURE","SCREEN FAILURE","DISPOSITION EVENT",NA,NA,"2013-08-05","2013-08-05",NA
"CDISCPILOT01","DS","01-716-1305",1,"SCREEN FAILURE","SCREEN FAILURE","DISPOSITION EVENT",NA,NA,"2013-08-06","2013-08-06",NA
"CDISCPILOT01","DS","01-716-1244",1,"SCREEN FAILURE","SCREEN FAILURE","DISPOSITION EVENT",NA,NA,"2013-08-15","2013-08-15",NA
"CDISCPILOT01","DS","01-705-1011",1,"SCREEN FAILURE","SCREEN FAILURE","DISPOSITION EVENT",NA,NA,"2013-09-01","2013-09-01",NA
"CDISCPILOT01","DS","01-701-1145",1,"SCREEN FAILURE","SCREEN FAILURE","DISPOSITION EVENT",NA,NA,"2013-09-05","2013-09-05",NA
"CDISCPILOT01","DS","01-708-1352",1,"SCREEN FAILURE","SCREEN FAILURE","DISPOSITION EVENT",NA,NA,"2013-09-16","2013-09-16",NA
"CDISCPILOT01","DS","01-701-1369",1,"SCREEN FAILURE","SCREEN FAILURE","DISPOSITION EVENT",NA,NA,"2013-09-18","2013-09-18",NA
"CDISCPILOT01","DS","01-701-1240",1,"SCREEN FAILURE","SCREEN FAILURE","DISPOSITION EVENT",NA,NA,"2013-09-22","2013-09-22",NA
"CDISCPILOT01","DS","01-711-1226",1,"SCREEN FAILURE","SCREEN FAILURE","DISPOSITION EVENT",NA,NA,"2013-10-24","2013-10-24",NA
"CDISCPILOT01","DS","01-710-1149",1,"SCREEN FAILURE","SCREEN FAILURE","DISPOSITION EVENT",NA,NA,"2013-11-16","2013-11-16",NA
"CDISCPILOT01","DS","01-709-1224",1,"SCREEN FAILURE","SCREEN FAILURE","DISPOSITION EVENT",NA,NA,"2013-11-18","2013-11-18",NA
"CDISCPILOT01","DS","01-716-1331",1,"SCREEN FAILURE","SCREEN FAILURE","DISPOSITION EVENT",NA,NA,"2013-11-25","2013-11-25",NA
"CDISCPILOT01","DS","01-710-1257",1,"SCREEN FAILURE","SCREEN FAILURE","DISPOSITION EVENT",NA,NA,"2013-11-29","2013-11-29",NA
"CDISCPILOT01","DS","01-705-1058",1,"SCREEN FAILURE","SCREEN FAILURE","DISPOSITION EVENT",NA,NA,"2013-12-02","2013-12-02",NA
"CDISCPILOT01","DS","01-701-1307",1,"SCREEN FAILURE","SCREEN FAILURE","DISPOSITION EVENT",NA,NA,"2013-12-08","2013-12-08",NA
"CDISCPILOT01","DS","01-710-1443",1,"SCREEN FAILURE","SCREEN FAILURE","DISPOSITION EVENT",NA,NA,"2013-12-13","2013-12-13",NA
"CDISCPILOT01","DS","01-701-1057",1,"SCREEN FAILURE","SCREEN FAILURE","DISPOSITION EVENT",NA,NA,"2013-12-20","2013-12-20",NA
"CDISCPILOT01","DS","01-711-1290",1,"SCREEN FAILURE","SCREEN FAILURE","DISPOSITION EVENT",NA,NA,"2013-12-20","2013-12-20",NA
"CDISCPILOT01","DS","01-701-1386",1,"SCREEN FAILURE","SCREEN FAILURE","DISPOSITION EVENT",NA,NA,"2013-12-28","2013-12-28",NA
"CDISCPILOT01","DS","01-710-1337",1,"SCREEN FAILURE","SCREEN FAILURE","DISPOSITION EVENT",NA,NA,"2013-12-30","2013-12-30",NA
"CDISCPILOT01","DS","01-709-1237",1,"SCREEN FAILURE","SCREEN FAILURE","DISPOSITION EVENT",NA,NA,"2014-01-17","2014-01-17",NA
"CDISCPILOT01","DS","01-708-1104",1,"SCREEN FAILURE","SCREEN FAILURE","DISPOSITION EVENT",NA,NA,"2014-01-23","2014-01-23",NA
"CDISCPILOT01","DS","01-703-1396",1,"SCREEN FAILURE","SCREEN FAILURE","DISPOSITION EVENT",NA,NA,"2014-02-09","2014-02-09",NA
"CDISCPILOT01","DS","01-707-1430",1,"SCREEN FAILURE","SCREEN FAILURE","DISPOSITION EVENT",NA,NA,"2014-02-14","2014-02-14",NA
"CDISCPILOT01","DS","01-708-1054",1,"SCREEN FAILURE","SCREEN FAILURE","DISPOSITION EVENT",NA,NA,"2014-02-14","2014-02-14",NA
"CDISCPILOT01","DS","01-716-1061",1,"SCREEN FAILURE","SCREEN FAILURE","DISPOSITION EVENT",NA,NA,"2014-02-14","2014-02-14",NA
"CDISCPILOT01","DS","01-705-1112",1,"SCREEN FAILURE","SCREEN FAILURE","DISPOSITION EVENT",NA,NA,"2014-02-23","2014-02-23",NA
"CDISCPILOT01","DS","01-711-1251",1,"SCREEN FAILURE","SCREEN FAILURE","DISPOSITION EVENT",NA,NA,"2014-02-28","2014-02-28",NA
"CDISCPILOT01","DS","01-711-1022",1,"SCREEN FAILURE","SCREEN FAILURE","DISPOSITION EVENT",NA,NA,"2014-03-17","2014-03-17",NA
"CDISCPILOT01","DS","01-711-1283",1,"SCREEN FAILURE","SCREEN FAILURE","DISPOSITION EVENT",NA,NA,"2014-03-27","2014-03-27",NA
"CDISCPILOT01","DS","01-716-1003",1,"SCREEN FAILURE","SCREEN FAILURE","DISPOSITION EVENT",NA,NA,"2014-03-29","2014-03-29",NA
"CDISCPILOT01","DS","01-701-1356",1,"SCREEN FAILURE","SCREEN FAILURE","DISPOSITION EVENT",NA,NA,"2014-04-01","2014-04-01",NA
"CDISCPILOT01","DS","01-715-1134",1,"SCREEN FAILURE","SCREEN FAILURE","DISPOSITION EVENT",NA,NA,"2014-04-17","2014-04-17",NA
"CDISCPILOT01","DS","01-710-1376",1,"SCREEN FAILURE","SCREEN FAILURE","DISPOSITION EVENT",NA,NA,"2014-04-21","2014-04-21",NA
"CDISCPILOT01","DS","01-709-1285",3,"SPONSOR DECISION (STUDY OR PATIENT DISCONTINUED BY THE SPONSOR)","STUDY TERMINATED BY SPONSOR","DISPOSITION EVENT",NA,NA,"2013-05-31","2013-05-31",NA
"CDISCPILOT01","DS","01-718-1101",3,"SPONSOR DECISION (STUDY OR PATIENT DISCONTINUED BY THE SPONSOR)","STUDY TERMINATED BY SPONSOR","DISPOSITION EVENT",NA,NA,"2013-08-02","2013-08-02",NA
"CDISCPILOT01","DS","01-714-1425",3,"SPONSOR DECISION (STUDY OR PATIENT DISCONTINUED BY THE SPONSOR)","STUDY TERMINATED BY SPONSOR","DISPOSITION EVENT",NA,NA,"2013-08-22","2013-08-22",NA
"CDISCPILOT01","DS","01-717-1357",3,"SPONSOR DECISION (STUDY OR PATIENT DISCONTINUED BY THE SPONSOR)","STUDY TERMINATED BY SPONSOR","DISPOSITION EVENT",NA,NA,"2013-10-20","2013-10-20",NA
"CDISCPILOT01","DS","01-708-1378",3,"SPONSOR DECISION (STUDY OR PATIENT DISCONTINUED BY THE SPONSOR)","STUDY TERMINATED BY SPONSOR","DISPOSITION EVENT",NA,NA,"2014-01-28","2014-01-28",NA
"CDISCPILOT01","DS","01-701-1345",3,"SPONSOR DECISION (STUDY OR PATIENT DISCONTINUED BY THE SPONSOR)","STUDY TERMINATED BY SPONSOR","DISPOSITION EVENT",NA,NA,"2014-03-18","2014-03-18",NA
"CDISCPILOT01","DS","01-701-1033",4,"SPONSOR DECISION (STUDY OR PATIENT DISCONTINUED BY THE SPONSOR)","STUDY TERMINATED BY SPONSOR","DISPOSITION EVENT",NA,NA,"2014-04-14","2014-04-14",NA
"CDISCPILOT01","DS","01-704-1260",3,"TOO MANY VISITS","WITHDRAWAL BY SUBJECT","DISPOSITION EVENT",NA,NA,"2013-01-18","2013-01-18",NA
"CDISCPILOT01","DS","01-715-1319",3,"TOO MUCH TROUBLE FOR CAREGIVER","WITHDRAWAL BY SUBJECT","DISPOSITION EVENT",NA,NA,"2013-03-18","2013-03-18",NA
"CDISCPILOT01","DS","01-704-1009",3,"TOO TIME CONSUMING;PT REFUSED FUTURE HOLTERS","WITHDRAWAL BY SUBJECT","DISPOSITION EVENT",NA,NA,"2013-10-02","2013-10-02",NA
"CDISCPILOT01","DS","01-703-1096",3,"UNABLE TO CONTACT PATIENT (LOST TO FOLLOW-UP)","LOST TO FOLLOW-UP","DISPOSITION EVENT",NA,NA,"2013-03-29","2013-03-29",NA
"CDISCPILOT01","DS","01-705-1031",3,"UNABLE TO CONTACT PATIENT (LOST TO FOLLOW-UP)","LOST TO FOLLOW-UP","DISPOSITION EVENT",NA,NA,"2014-05-11","2014-05-11",NA
"CDISCPILOT01","DS","01-701-1275",3,"WITHDRAW CONSENT","WITHDRAWAL BY SUBJECT","DISPOSITION EVENT",NA,NA,"2014-06-14","2014-06-14",NA
"CDISCPILOT01","DS","01-701-1429",3,"WITHDRAW CONSENT DUE TO COMPLIANCY ISSUE","WITHDRAWAL BY SUBJECT","DISPOSITION EVENT",NA,NA,"2013-04-30","2013-04-30",NA
"CDISCPILOT01","DS","01-707-1037",3,"WITHDRAWS CONSENT","WITHDRAWAL BY SUBJECT","DISPOSITION EVENT",NA,NA,"2014-01-08","2014-01-08",NA
"CDISCPILOT01","DS","01-704-1435",3,"WITHDREW CONSENT","WITHDRAWAL BY SUBJECT","DISPOSITION EVENT",NA,NA,"2013-01-12","2013-01-12",NA
"CDISCPILOT01","DS","01-704-1233",3,"WITHDREW CONSENT","WITHDRAWAL BY SUBJECT","DISPOSITION EVENT",NA,NA,"2013-07-14","2013-07-14",NA
